STUDYID,DOMAIN,USUBJID,CMSEQ,CMSPID,CMTRT,CMDECOD,CMINDC,CMCLAS,CMDOSE,CMDOSU,CMDOSFRQ,CMROUTE,VISITNUM,VISIT,VISITDY,CMDTC,CMSTDTC,CMENDTC,CMSTDY,CMENDY
CDISCPILOT01,CM,01-701-1015,1,1,ASPIRIN,ACETYLSALICYLIC ACID,,NERVOUS SYSTEM,1,TABLET,PRN,ORAL,1,SCREENING 1,-7,2013-12-26,2003,,,
CDISCPILOT01,CM,01-701-1015,5,1,ASPIRIN,ACETYLSALICYLIC ACID,,NERVOUS SYSTEM,1,TABLET,PRN,ORAL,2,SCREENING 2,-1,2013-12-31,2003,,,
CDISCPILOT01,CM,01-701-1015,9,1,ASPIRIN,ACETYLSALICYLIC ACID,,NERVOUS SYSTEM,1,TABLET,PRN,ORAL,3,BASELINE,1,2014-01-02,2003,,,
CDISCPILOT01,CM,01-701-1015,13,1,ASPIRIN,ACETYLSALICYLIC ACID,,NERVOUS SYSTEM,1,TABLET,PRN,ORAL,4,WEEK 2,14,2014-01-16,2003,,,
CDISCPILOT01,CM,01-701-1015,18,1,ASPIRIN,ACETYLSALICYLIC ACID,,NERVOUS SYSTEM,1,TABLET,PRN,ORAL,5,WEEK 4,28,2014-01-30,2003,,,
CDISCPILOT01,CM,01-701-1015,23,1,ASPIRIN,ACETYLSALICYLIC ACID,,NERVOUS SYSTEM,1,TABLET,PRN,ORAL,6,AMBUL ECG REMOVAL,30,2014-02-01,2003,,,
CDISCPILOT01,CM,01-701-1015,28,1,ASPIRIN,ACETYLSALICYLIC ACID,,NERVOUS SYSTEM,1,TABLET,PRN,ORAL,7,WEEK 6,42,2014-02-12,2003,,,
CDISCPILOT01,CM,01-701-1015,33,1,ASPIRIN,ACETYLSALICYLIC ACID,,NERVOUS SYSTEM,1,TABLET,PRN,ORAL,8,WEEK 8,56,2014-03-05,2003,,,
CDISCPILOT01,CM,01-701-1015,38,1,ASPIRIN,ACETYLSALICYLIC ACID,,NERVOUS SYSTEM,1,TABLET,PRN,ORAL,9,WEEK 12,84,2014-03-26,2003,,,
CDISCPILOT01,CM,01-701-1015,43,1,ASPIRIN,ACETYLSALICYLIC ACID,,NERVOUS SYSTEM,1,TABLET,PRN,ORAL,10,WEEK 16,112,2014-05-07,2003,,,
CDISCPILOT01,CM,01-701-1015,49,1,ASPIRIN,ACETYLSALICYLIC ACID,,NERVOUS SYSTEM,1,TABLET,PRN,ORAL,11,WEEK 20,140,2014-05-21,2003,,,
CDISCPILOT01,CM,01-701-1015,55,1,ASPIRIN,ACETYLSALICYLIC ACID,,NERVOUS SYSTEM,1,TABLET,PRN,ORAL,12,WEEK 24,168,2014-06-18,2003,,,
CDISCPILOT01,CM,01-701-1015,61,1,ASPIRIN,ACETYLSALICYLIC ACID,,NERVOUS SYSTEM,1,TABLET,PRN,ORAL,13,WEEK 26,182,2014-07-02,2003,,,
CDISCPILOT01,CM,01-701-1015,4,2,CALCIUM,CALCIUM,PROPHYLAXIS OR NON-THERAPEUTIC USE,ALIMENTARY TRACT AND METABOLISM,1,TABLET,QD,ORAL,1,SCREENING 1,-7,2013-12-26,2013,,,
CDISCPILOT01,CM,01-701-1015,8,2,CALCIUM,CALCIUM,PROPHYLAXIS OR NON-THERAPEUTIC USE,ALIMENTARY TRACT AND METABOLISM,1,TABLET,QD,ORAL,2,SCREENING 2,-1,2013-12-31,2013,,,
CDISCPILOT01,CM,01-701-1015,12,2,CALCIUM,CALCIUM,PROPHYLAXIS OR NON-THERAPEUTIC USE,ALIMENTARY TRACT AND METABOLISM,1,TABLET,QD,ORAL,3,BASELINE,1,2014-01-02,2013,,,
CDISCPILOT01,CM,01-701-1015,16,2,CALCIUM,CALCIUM,PROPHYLAXIS OR NON-THERAPEUTIC USE,ALIMENTARY TRACT AND METABOLISM,1,TABLET,QD,ORAL,4,WEEK 2,14,2014-01-16,2013,,,
CDISCPILOT01,CM,01-701-1015,21,2,CALCIUM,CALCIUM,PROPHYLAXIS OR NON-THERAPEUTIC USE,ALIMENTARY TRACT AND METABOLISM,1,TABLET,QD,ORAL,5,WEEK 4,28,2014-01-30,2013,,,
CDISCPILOT01,CM,01-701-1015,26,2,CALCIUM,CALCIUM,PROPHYLAXIS OR NON-THERAPEUTIC USE,ALIMENTARY TRACT AND METABOLISM,1,TABLET,QD,ORAL,6,AMBUL ECG REMOVAL,30,2014-02-01,2013,,,
CDISCPILOT01,CM,01-701-1015,31,2,CALCIUM,CALCIUM,PROPHYLAXIS OR NON-THERAPEUTIC USE,ALIMENTARY TRACT AND METABOLISM,1,TABLET,QD,ORAL,7,WEEK 6,42,2014-02-12,2013,,,
CDISCPILOT01,CM,01-701-1015,36,2,CALCIUM,CALCIUM,PROPHYLAXIS OR NON-THERAPEUTIC USE,ALIMENTARY TRACT AND METABOLISM,1,TABLET,QD,ORAL,8,WEEK 8,56,2014-03-05,2013,,,
CDISCPILOT01,CM,01-701-1015,41,2,CALCIUM,CALCIUM,PROPHYLAXIS OR NON-THERAPEUTIC USE,ALIMENTARY TRACT AND METABOLISM,1,TABLET,QD,ORAL,9,WEEK 12,84,2014-03-26,2013,,,
CDISCPILOT01,CM,01-701-1015,46,2,CALCIUM,CALCIUM,PROPHYLAXIS OR NON-THERAPEUTIC USE,ALIMENTARY TRACT AND METABOLISM,1,TABLET,QD,ORAL,10,WEEK 16,112,2014-05-07,2013,,,
CDISCPILOT01,CM,01-701-1015,52,2,CALCIUM,CALCIUM,PROPHYLAXIS OR NON-THERAPEUTIC USE,ALIMENTARY TRACT AND METABOLISM,1,TABLET,QD,ORAL,11,WEEK 20,140,2014-05-21,2013,,,
CDISCPILOT01,CM,01-701-1015,58,2,CALCIUM,CALCIUM,PROPHYLAXIS OR NON-THERAPEUTIC USE,ALIMENTARY TRACT AND METABOLISM,1,TABLET,QD,ORAL,12,WEEK 24,168,2014-06-18,2013,,,
CDISCPILOT01,CM,01-701-1015,64,2,CALCIUM,CALCIUM,PROPHYLAXIS OR NON-THERAPEUTIC USE,ALIMENTARY TRACT AND METABOLISM,1,TABLET,QD,ORAL,13,WEEK 26,182,2014-07-02,2013,,,
CDISCPILOT01,CM,01-701-1015,48,6,HYDROCORTISONE,HYDROCORTISONE,,"SYSTEMIC HORMONAL PREPARATIONS, EXCL.",1,VIAL,PRN,TOPICAL,10,WEEK 16,112,2014-05-07,2014-03-27,,85,
CDISCPILOT01,CM,01-701-1015,54,6,HYDROCORTISONE,HYDROCORTISONE,,"SYSTEMIC HORMONAL PREPARATIONS, EXCL.",1,VIAL,PRN,TOPICAL,11,WEEK 20,140,2014-05-21,2014-03-27,,85,
CDISCPILOT01,CM,01-701-1015,60,6,HYDROCORTISONE,HYDROCORTISONE,,"SYSTEMIC HORMONAL PREPARATIONS, EXCL.",1,VIAL,PRN,TOPICAL,12,WEEK 24,168,2014-06-18,2014-03-27,,85,
CDISCPILOT01,CM,01-701-1015,66,6,HYDROCORTISONE,HYDROCORTISONE,,"SYSTEMIC HORMONAL PREPARATIONS, EXCL.",1,VIAL,PRN,TOPICAL,13,WEEK 26,182,2014-07-02,2014-03-27,,85,
CDISCPILOT01,CM,01-701-1015,17,5,NEOSPORIN /USA/,UNCODED,,UNCODED,1,VIAL,PRN,TOPICAL,4,WEEK 2,14,2014-01-16,2014-01-03,,2,
CDISCPILOT01,CM,01-701-1015,22,5,NEOSPORIN /USA/,UNCODED,,UNCODED,1,VIAL,PRN,TOPICAL,5,WEEK 4,28,2014-01-30,2014-01-03,,2,
CDISCPILOT01,CM,01-701-1015,27,5,NEOSPORIN /USA/,UNCODED,,UNCODED,1,VIAL,PRN,TOPICAL,6,AMBUL ECG REMOVAL,30,2014-02-01,2014-01-03,,2,
CDISCPILOT01,CM,01-701-1015,32,5,NEOSPORIN /USA/,UNCODED,,UNCODED,1,VIAL,PRN,TOPICAL,7,WEEK 6,42,2014-02-12,2014-01-03,,2,
CDISCPILOT01,CM,01-701-1015,37,5,NEOSPORIN /USA/,UNCODED,,UNCODED,1,VIAL,PRN,TOPICAL,8,WEEK 8,56,2014-03-05,2014-01-03,,2,
CDISCPILOT01,CM,01-701-1015,42,5,NEOSPORIN /USA/,UNCODED,,UNCODED,1,VIAL,PRN,TOPICAL,9,WEEK 12,84,2014-03-26,2014-01-03,,2,
CDISCPILOT01,CM,01-701-1015,47,5,NEOSPORIN /USA/,UNCODED,,UNCODED,1,VIAL,PRN,TOPICAL,10,WEEK 16,112,2014-05-07,2014-01-03,,2,
CDISCPILOT01,CM,01-701-1015,53,5,NEOSPORIN /USA/,UNCODED,,UNCODED,1,VIAL,PRN,TOPICAL,11,WEEK 20,140,2014-05-21,2014-01-03,,2,
CDISCPILOT01,CM,01-701-1015,59,5,NEOSPORIN /USA/,UNCODED,,UNCODED,1,VIAL,PRN,TOPICAL,12,WEEK 24,168,2014-06-18,2014-01-03,,2,
CDISCPILOT01,CM,01-701-1015,65,5,NEOSPORIN /USA/,UNCODED,,UNCODED,1,VIAL,PRN,TOPICAL,13,WEEK 26,182,2014-07-02,2014-01-03,,2,
CDISCPILOT01,CM,01-701-1015,3,3,PREMARIN,ESTROGENS CONJUGATED,PROPHYLAXIS OR NON-THERAPEUTIC USE,GENITO URINARY SYSTEM AND SEX HORMONES,0.625,mg,QD,ORAL,1,SCREENING 1,-7,2013-12-26,2006,,,
CDISCPILOT01,CM,01-701-1015,7,3,PREMARIN,ESTROGENS CONJUGATED,PROPHYLAXIS OR NON-THERAPEUTIC USE,GENITO URINARY SYSTEM AND SEX HORMONES,0.625,mg,QD,ORAL,2,SCREENING 2,-1,2013-12-31,2006,,,
CDISCPILOT01,CM,01-701-1015,11,3,PREMARIN,ESTROGENS CONJUGATED,PROPHYLAXIS OR NON-THERAPEUTIC USE,GENITO URINARY SYSTEM AND SEX HORMONES,0.625,mg,QD,ORAL,3,BASELINE,1,2014-01-02,2006,,,
CDISCPILOT01,CM,01-701-1015,15,3,PREMARIN,ESTROGENS CONJUGATED,PROPHYLAXIS OR NON-THERAPEUTIC USE,GENITO URINARY SYSTEM AND SEX HORMONES,0.625,mg,QD,ORAL,4,WEEK 2,14,2014-01-16,2006,,,
CDISCPILOT01,CM,01-701-1015,20,3,PREMARIN,ESTROGENS CONJUGATED,PROPHYLAXIS OR NON-THERAPEUTIC USE,GENITO URINARY SYSTEM AND SEX HORMONES,0.625,mg,QD,ORAL,5,WEEK 4,28,2014-01-30,2006,,,
CDISCPILOT01,CM,01-701-1015,25,3,PREMARIN,ESTROGENS CONJUGATED,PROPHYLAXIS OR NON-THERAPEUTIC USE,GENITO URINARY SYSTEM AND SEX HORMONES,0.625,mg,QD,ORAL,6,AMBUL ECG REMOVAL,30,2014-02-01,2006,,,
CDISCPILOT01,CM,01-701-1015,30,3,PREMARIN,ESTROGENS CONJUGATED,PROPHYLAXIS OR NON-THERAPEUTIC USE,GENITO URINARY SYSTEM AND SEX HORMONES,0.625,mg,QD,ORAL,7,WEEK 6,42,2014-02-12,2006,,,
CDISCPILOT01,CM,01-701-1015,35,3,PREMARIN,ESTROGENS CONJUGATED,PROPHYLAXIS OR NON-THERAPEUTIC USE,GENITO URINARY SYSTEM AND SEX HORMONES,0.625,mg,QD,ORAL,8,WEEK 8,56,2014-03-05,2006,,,
CDISCPILOT01,CM,01-701-1015,40,3,PREMARIN,ESTROGENS CONJUGATED,PROPHYLAXIS OR NON-THERAPEUTIC USE,GENITO URINARY SYSTEM AND SEX HORMONES,0.625,mg,QD,ORAL,9,WEEK 12,84,2014-03-26,2006,,,
CDISCPILOT01,CM,01-701-1015,45,3,PREMARIN,ESTROGENS CONJUGATED,PROPHYLAXIS OR NON-THERAPEUTIC USE,GENITO URINARY SYSTEM AND SEX HORMONES,0.625,mg,QD,ORAL,10,WEEK 16,112,2014-05-07,2006,,,
CDISCPILOT01,CM,01-701-1015,51,3,PREMARIN,ESTROGENS CONJUGATED,PROPHYLAXIS OR NON-THERAPEUTIC USE,GENITO URINARY SYSTEM AND SEX HORMONES,0.625,mg,QD,ORAL,11,WEEK 20,140,2014-05-21,2006,,,
CDISCPILOT01,CM,01-701-1015,57,3,PREMARIN,ESTROGENS CONJUGATED,PROPHYLAXIS OR NON-THERAPEUTIC USE,GENITO URINARY SYSTEM AND SEX HORMONES,0.625,mg,QD,ORAL,12,WEEK 24,168,2014-06-18,2006,,,
CDISCPILOT01,CM,01-701-1015,63,3,PREMARIN,ESTROGENS CONJUGATED,PROPHYLAXIS OR NON-THERAPEUTIC USE,GENITO URINARY SYSTEM AND SEX HORMONES,0.625,mg,QD,ORAL,13,WEEK 26,182,2014-07-02,2006,,,
CDISCPILOT01,CM,01-701-1015,2,4,TYLENOL,UNCODED,,UNCODED,1,TABLET,PRN,ORAL,1,SCREENING 1,-7,2013-12-26,2003,,,
CDISCPILOT01,CM,01-701-1015,6,4,TYLENOL,UNCODED,,UNCODED,1,TABLET,PRN,ORAL,2,SCREENING 2,-1,2013-12-31,2003,,,
CDISCPILOT01,CM,01-701-1015,10,4,TYLENOL,UNCODED,,UNCODED,1,TABLET,PRN,ORAL,3,BASELINE,1,2014-01-02,2003,,,
CDISCPILOT01,CM,01-701-1015,14,4,TYLENOL,UNCODED,,UNCODED,1,TABLET,PRN,ORAL,4,WEEK 2,14,2014-01-16,2003,,,
CDISCPILOT01,CM,01-701-1015,19,4,TYLENOL,UNCODED,,UNCODED,1,TABLET,PRN,ORAL,5,WEEK 4,28,2014-01-30,2003,,,
CDISCPILOT01,CM,01-701-1015,24,4,TYLENOL,UNCODED,,UNCODED,1,TABLET,PRN,ORAL,6,AMBUL ECG REMOVAL,30,2014-02-01,2003,,,
CDISCPILOT01,CM,01-701-1015,29,4,TYLENOL,UNCODED,,UNCODED,1,TABLET,PRN,ORAL,7,WEEK 6,42,2014-02-12,2003,,,
CDISCPILOT01,CM,01-701-1015,34,4,TYLENOL,UNCODED,,UNCODED,1,TABLET,PRN,ORAL,8,WEEK 8,56,2014-03-05,2003,,,
CDISCPILOT01,CM,01-701-1015,39,4,TYLENOL,UNCODED,,UNCODED,1,TABLET,PRN,ORAL,9,WEEK 12,84,2014-03-26,2003,,,
CDISCPILOT01,CM,01-701-1015,44,4,TYLENOL,UNCODED,,UNCODED,1,TABLET,PRN,ORAL,10,WEEK 16,112,2014-05-07,2003,,,
CDISCPILOT01,CM,01-701-1015,50,4,TYLENOL,UNCODED,,UNCODED,1,TABLET,PRN,ORAL,11,WEEK 20,140,2014-05-21,2003,,,
CDISCPILOT01,CM,01-701-1015,56,4,TYLENOL,UNCODED,,UNCODED,1,TABLET,PRN,ORAL,12,WEEK 24,168,2014-06-18,2003,,,
CDISCPILOT01,CM,01-701-1015,62,4,TYLENOL,UNCODED,,UNCODED,1,TABLET,PRN,ORAL,13,WEEK 26,182,2014-07-02,2003,,,
CDISCPILOT01,CM,01-701-1023,3,1,ASPIRIN,ACETYLSALICYLIC ACID,,NERVOUS SYSTEM,325,mg,PRN,ORAL,1,SCREENING 1,-7,2012-07-22,2006,,,
CDISCPILOT01,CM,01-701-1023,6,1,ASPIRIN,ACETYLSALICYLIC ACID,,NERVOUS SYSTEM,325,mg,PRN,ORAL,2,SCREENING 2,-1,2012-08-03,2006,,,
CDISCPILOT01,CM,01-701-1023,9,1,ASPIRIN,ACETYLSALICYLIC ACID,,NERVOUS SYSTEM,325,mg,PRN,ORAL,3,BASELINE,1,2012-08-05,2006,,,
CDISCPILOT01,CM,01-701-1023,12,1,ASPIRIN,ACETYLSALICYLIC ACID,,NERVOUS SYSTEM,325,mg,PRN,ORAL,4,WEEK 2,14,2012-08-27,2006,,,
CDISCPILOT01,CM,01-701-1023,15,1,ASPIRIN,ACETYLSALICYLIC ACID,,NERVOUS SYSTEM,325,mg,PRN,ORAL,5,WEEK 4,28,2012-09-02,2006,,,
CDISCPILOT01,CM,01-701-1023,18,1,ASPIRIN,ACETYLSALICYLIC ACID,,NERVOUS SYSTEM,325,mg,PRN,ORAL,101,AE FOLLOW-UP,,2013-02-18,2006,,,
CDISCPILOT01,CM,01-701-1023,21,1,ASPIRIN,ACETYLSALICYLIC ACID,,NERVOUS SYSTEM,325,mg,PRN,ORAL,201,RETRIEVAL,168,2013-02-18,2006,,,
CDISCPILOT01,CM,01-701-1023,1,2,MYLANTA,UNCODED,,UNCODED,1,Tbsp,PRN,ORAL,1,SCREENING 1,-7,2012-07-22,2002,,,
CDISCPILOT01,CM,01-701-1023,4,2,MYLANTA,UNCODED,,UNCODED,1,Tbsp,PRN,ORAL,2,SCREENING 2,-1,2012-08-03,2002,,,
CDISCPILOT01,CM,01-701-1023,7,2,MYLANTA,UNCODED,,UNCODED,1,Tbsp,PRN,ORAL,3,BASELINE,1,2012-08-05,2002,,,
CDISCPILOT01,CM,01-701-1023,10,2,MYLANTA,UNCODED,,UNCODED,1,Tbsp,PRN,ORAL,4,WEEK 2,14,2012-08-27,2002,,,
CDISCPILOT01,CM,01-701-1023,13,2,MYLANTA,UNCODED,,UNCODED,1,Tbsp,PRN,ORAL,5,WEEK 4,28,2012-09-02,2002,,,
CDISCPILOT01,CM,01-701-1023,16,2,MYLANTA,UNCODED,,UNCODED,1,Tbsp,PRN,ORAL,101,AE FOLLOW-UP,,2013-02-18,2002,,,
CDISCPILOT01,CM,01-701-1023,19,2,MYLANTA,UNCODED,,UNCODED,1,Tbsp,PRN,ORAL,201,RETRIEVAL,168,2013-02-18,2002,,,
CDISCPILOT01,CM,01-701-1023,2,3,TUMS,UNCODED,,UNCODED,1,TABLET,PRN,ORAL,1,SCREENING 1,-7,2012-07-22,2002,,,
CDISCPILOT01,CM,01-701-1023,5,3,TUMS,UNCODED,,UNCODED,1,TABLET,PRN,ORAL,2,SCREENING 2,-1,2012-08-03,2002,,,
CDISCPILOT01,CM,01-701-1023,8,3,TUMS,UNCODED,,UNCODED,1,TABLET,PRN,ORAL,3,BASELINE,1,2012-08-05,2002,,,
CDISCPILOT01,CM,01-701-1023,11,3,TUMS,UNCODED,,UNCODED,1,TABLET,PRN,ORAL,4,WEEK 2,14,2012-08-27,2002,,,
CDISCPILOT01,CM,01-701-1023,14,3,TUMS,UNCODED,,UNCODED,1,TABLET,PRN,ORAL,5,WEEK 4,28,2012-09-02,2002,,,
CDISCPILOT01,CM,01-701-1023,17,3,TUMS,UNCODED,,UNCODED,1,TABLET,PRN,ORAL,101,AE FOLLOW-UP,,2013-02-18,2002,,,
CDISCPILOT01,CM,01-701-1023,20,3,TUMS,UNCODED,,UNCODED,1,TABLET,PRN,ORAL,201,RETRIEVAL,168,2013-02-18,2002,,,
CDISCPILOT01,CM,01-701-1028,1,1,CENTRUM,UNCODED,PROPHYLAXIS OR NON-THERAPEUTIC USE,UNCODED,1,TABLET,QD,ORAL,1,SCREENING 1,-7,2013-07-11,2013-04,,,
CDISCPILOT01,CM,01-701-1028,2,1,CENTRUM,UNCODED,PROPHYLAXIS OR NON-THERAPEUTIC USE,UNCODED,1,TABLET,QD,ORAL,2,SCREENING 2,-1,2013-07-17,2013-04,,,
CDISCPILOT01,CM,01-701-1028,3,1,CENTRUM,UNCODED,PROPHYLAXIS OR NON-THERAPEUTIC USE,UNCODED,1,TABLET,QD,ORAL,3,BASELINE,1,2013-07-19,2013-04,,,
CDISCPILOT01,CM,01-701-1028,4,1,CENTRUM,UNCODED,PROPHYLAXIS OR NON-THERAPEUTIC USE,UNCODED,1,TABLET,QD,ORAL,4,WEEK 2,14,2013-08-01,2013-04,,,
CDISCPILOT01,CM,01-701-1028,5,1,CENTRUM,UNCODED,PROPHYLAXIS OR NON-THERAPEUTIC USE,UNCODED,1,TABLET,QD,ORAL,5,WEEK 4,28,2013-08-14,2013-04,,,
CDISCPILOT01,CM,01-701-1028,7,1,CENTRUM,UNCODED,PROPHYLAXIS OR NON-THERAPEUTIC USE,UNCODED,1,TABLET,QD,ORAL,6,AMBUL ECG REMOVAL,30,2013-08-16,2013-04,,,
CDISCPILOT01,CM,01-701-1028,9,1,CENTRUM,UNCODED,PROPHYLAXIS OR NON-THERAPEUTIC USE,UNCODED,1,TABLET,QD,ORAL,7,WEEK 6,42,2013-08-29,2013-04,,,
CDISCPILOT01,CM,01-701-1028,11,1,CENTRUM,UNCODED,PROPHYLAXIS OR NON-THERAPEUTIC USE,UNCODED,1,TABLET,QD,ORAL,8,WEEK 8,56,2013-09-10,2013-04,,,
CDISCPILOT01,CM,01-701-1028,13,1,CENTRUM,UNCODED,PROPHYLAXIS OR NON-THERAPEUTIC USE,UNCODED,1,TABLET,QD,ORAL,9,WEEK 12,84,2013-10-09,2013-04,,,
CDISCPILOT01,CM,01-701-1028,15,1,CENTRUM,UNCODED,PROPHYLAXIS OR NON-THERAPEUTIC USE,UNCODED,1,TABLET,QD,ORAL,10,WEEK 16,112,2013-11-06,2013-04,,,
CDISCPILOT01,CM,01-701-1028,17,1,CENTRUM,UNCODED,PROPHYLAXIS OR NON-THERAPEUTIC USE,UNCODED,1,TABLET,QD,ORAL,11,WEEK 20,140,2013-12-04,2013-04,,,
CDISCPILOT01,CM,01-701-1028,19,1,CENTRUM,UNCODED,PROPHYLAXIS OR NON-THERAPEUTIC USE,UNCODED,1,TABLET,QD,ORAL,12,WEEK 24,168,2014-01-06,2013-04,,,
CDISCPILOT01,CM,01-701-1028,21,1,CENTRUM,UNCODED,PROPHYLAXIS OR NON-THERAPEUTIC USE,UNCODED,1,TABLET,QD,ORAL,13,WEEK 26,182,2014-01-14,2013-04,,,
CDISCPILOT01,CM,01-701-1028,6,2,HYDROCORTISONE,HYDROCORTISONE,,"SYSTEMIC HORMONAL PREPARATIONS, EXCL.",1,VIAL,PRN,TOPICAL,5,WEEK 4,28,2013-08-14,2013-08-08,,21,
CDISCPILOT01,CM,01-701-1028,8,2,HYDROCORTISONE,HYDROCORTISONE,,"SYSTEMIC HORMONAL PREPARATIONS, EXCL.",1,VIAL,PRN,TOPICAL,6,AMBUL ECG REMOVAL,30,2013-08-16,2013-08-08,,21,
CDISCPILOT01,CM,01-701-1028,10,2,HYDROCORTISONE,HYDROCORTISONE,,"SYSTEMIC HORMONAL PREPARATIONS, EXCL.",1,VIAL,PRN,TOPICAL,7,WEEK 6,42,2013-08-29,2013-08-08,,21,
CDISCPILOT01,CM,01-701-1028,12,2,HYDROCORTISONE,HYDROCORTISONE,,"SYSTEMIC HORMONAL PREPARATIONS, EXCL.",1,VIAL,PRN,TOPICAL,8,WEEK 8,56,2013-09-10,2013-08-08,,21,
CDISCPILOT01,CM,01-701-1028,14,2,HYDROCORTISONE,HYDROCORTISONE,,"SYSTEMIC HORMONAL PREPARATIONS, EXCL.",1,VIAL,PRN,TOPICAL,9,WEEK 12,84,2013-10-09,2013-08-08,,21,
CDISCPILOT01,CM,01-701-1028,16,2,HYDROCORTISONE,HYDROCORTISONE,,"SYSTEMIC HORMONAL PREPARATIONS, EXCL.",1,VIAL,PRN,TOPICAL,10,WEEK 16,112,2013-11-06,2013-08-08,,21,
CDISCPILOT01,CM,01-701-1028,18,2,HYDROCORTISONE,HYDROCORTISONE,,"SYSTEMIC HORMONAL PREPARATIONS, EXCL.",1,VIAL,PRN,TOPICAL,11,WEEK 20,140,2013-12-04,2013-08-08,,21,
CDISCPILOT01,CM,01-701-1028,20,2,HYDROCORTISONE,HYDROCORTISONE,,"SYSTEMIC HORMONAL PREPARATIONS, EXCL.",1,VIAL,PRN,TOPICAL,12,WEEK 24,168,2014-01-06,2013-08-08,,21,
CDISCPILOT01,CM,01-701-1028,22,2,HYDROCORTISONE,HYDROCORTISONE,,"SYSTEMIC HORMONAL PREPARATIONS, EXCL.",1,VIAL,PRN,TOPICAL,13,WEEK 26,182,2014-01-14,2013-08-08,,21,
CDISCPILOT01,CM,01-701-1033,1,1,CALCIUM,CALCIUM,PROPHYLAXIS OR NON-THERAPEUTIC USE,ALIMENTARY TRACT AND METABOLISM,1,TABLET,PRN,ORAL,1,SCREENING 1,-7,2014-03-10,2011,,,
CDISCPILOT01,CM,01-701-1033,5,1,CALCIUM,CALCIUM,PROPHYLAXIS OR NON-THERAPEUTIC USE,ALIMENTARY TRACT AND METABOLISM,1,TABLET,PRN,ORAL,2,SCREENING 2,-1,2014-03-16,2011,,,
CDISCPILOT01,CM,01-701-1033,9,1,CALCIUM,CALCIUM,PROPHYLAXIS OR NON-THERAPEUTIC USE,ALIMENTARY TRACT AND METABOLISM,1,TABLET,PRN,ORAL,3,BASELINE,1,2014-03-18,2011,,,
CDISCPILOT01,CM,01-701-1033,13,1,CALCIUM,CALCIUM,PROPHYLAXIS OR NON-THERAPEUTIC USE,ALIMENTARY TRACT AND METABOLISM,1,TABLET,PRN,ORAL,4,WEEK 2,14,2014-04-01,2011,,,
CDISCPILOT01,CM,01-701-1033,17,1,CALCIUM,CALCIUM,PROPHYLAXIS OR NON-THERAPEUTIC USE,ALIMENTARY TRACT AND METABOLISM,1,TABLET,PRN,ORAL,5,WEEK 4,28,2014-04-14,2011,,,
CDISCPILOT01,CM,01-701-1033,21,1,CALCIUM,CALCIUM,PROPHYLAXIS OR NON-THERAPEUTIC USE,ALIMENTARY TRACT AND METABOLISM,1,TABLET,PRN,ORAL,201,RETRIEVAL,168,2014-09-15,2011,,,
CDISCPILOT01,CM,01-701-1033,2,2,COD-LIVER OIL,UNCODED,PROPHYLAXIS OR NON-THERAPEUTIC USE,UNCODED,1,CAPSULE,PRN,ORAL,1,SCREENING 1,-7,2014-03-10,2011,,,
CDISCPILOT01,CM,01-701-1033,6,2,COD-LIVER OIL,UNCODED,PROPHYLAXIS OR NON-THERAPEUTIC USE,UNCODED,1,CAPSULE,PRN,ORAL,2,SCREENING 2,-1,2014-03-16,2011,,,
CDISCPILOT01,CM,01-701-1033,10,2,COD-LIVER OIL,UNCODED,PROPHYLAXIS OR NON-THERAPEUTIC USE,UNCODED,1,CAPSULE,PRN,ORAL,3,BASELINE,1,2014-03-18,2011,,,
CDISCPILOT01,CM,01-701-1033,14,2,COD-LIVER OIL,UNCODED,PROPHYLAXIS OR NON-THERAPEUTIC USE,UNCODED,1,CAPSULE,PRN,ORAL,4,WEEK 2,14,2014-04-01,2011,,,
CDISCPILOT01,CM,01-701-1033,18,2,COD-LIVER OIL,UNCODED,PROPHYLAXIS OR NON-THERAPEUTIC USE,UNCODED,1,CAPSULE,PRN,ORAL,5,WEEK 4,28,2014-04-14,2011,,,
CDISCPILOT01,CM,01-701-1033,22,2,COD-LIVER OIL,UNCODED,PROPHYLAXIS OR NON-THERAPEUTIC USE,UNCODED,1,CAPSULE,PRN,ORAL,201,RETRIEVAL,168,2014-09-15,2011,,,
CDISCPILOT01,CM,01-701-1033,4,3,NITROGLYCERIN,UNCODED,,UNCODED,0.4,mg,PRN,SUBLINGUAL,1,SCREENING 1,-7,2014-03-10,2014-02,,,
CDISCPILOT01,CM,01-701-1033,8,3,NITROGLYCERIN,UNCODED,,UNCODED,0.4,mg,PRN,SUBLINGUAL,2,SCREENING 2,-1,2014-03-16,2014-02,,,
CDISCPILOT01,CM,01-701-1033,12,3,NITROGLYCERIN,UNCODED,,UNCODED,0.4,mg,PRN,SUBLINGUAL,3,BASELINE,1,2014-03-18,2014-02,,,
CDISCPILOT01,CM,01-701-1033,16,3,NITROGLYCERIN,UNCODED,,UNCODED,0.4,mg,PRN,SUBLINGUAL,4,WEEK 2,14,2014-04-01,2014-02,,,
CDISCPILOT01,CM,01-701-1033,20,3,NITROGLYCERIN,UNCODED,,UNCODED,0.4,mg,PRN,SUBLINGUAL,5,WEEK 4,28,2014-04-14,2014-02,,,
CDISCPILOT01,CM,01-701-1033,24,3,NITROGLYCERIN,UNCODED,,UNCODED,0.4,mg,PRN,SUBLINGUAL,201,RETRIEVAL,168,2014-09-15,2014-02,,,
CDISCPILOT01,CM,01-701-1033,3,4,ZINC,UNCODED,PROPHYLAXIS OR NON-THERAPEUTIC USE,UNCODED,1,TABLET,PRN,ORAL,1,SCREENING 1,-7,2014-03-10,2011,,,
CDISCPILOT01,CM,01-701-1033,7,4,ZINC,UNCODED,PROPHYLAXIS OR NON-THERAPEUTIC USE,UNCODED,1,TABLET,PRN,ORAL,2,SCREENING 2,-1,2014-03-16,2011,,,
CDISCPILOT01,CM,01-701-1033,11,4,ZINC,UNCODED,PROPHYLAXIS OR NON-THERAPEUTIC USE,UNCODED,1,TABLET,PRN,ORAL,3,BASELINE,1,2014-03-18,2011,,,
CDISCPILOT01,CM,01-701-1033,15,4,ZINC,UNCODED,PROPHYLAXIS OR NON-THERAPEUTIC USE,UNCODED,1,TABLET,PRN,ORAL,4,WEEK 2,14,2014-04-01,2011,,,
CDISCPILOT01,CM,01-701-1033,19,4,ZINC,UNCODED,PROPHYLAXIS OR NON-THERAPEUTIC USE,UNCODED,1,TABLET,PRN,ORAL,5,WEEK 4,28,2014-04-14,2011,,,
CDISCPILOT01,CM,01-701-1033,23,4,ZINC,UNCODED,PROPHYLAXIS OR NON-THERAPEUTIC USE,UNCODED,1,TABLET,PRN,ORAL,201,RETRIEVAL,168,2014-09-15,2011,,,
CDISCPILOT01,CM,01-701-1034,6,1,CALCIUM,CALCIUM,PROPHYLAXIS OR NON-THERAPEUTIC USE,ALIMENTARY TRACT AND METABOLISM,1,TABLET,QD,ORAL,1,SCREENING 1,-7,2014-06-24,2012,,,
CDISCPILOT01,CM,01-701-1034,13,1,CALCIUM,CALCIUM,PROPHYLAXIS OR NON-THERAPEUTIC USE,ALIMENTARY TRACT AND METABOLISM,1,TABLET,QD,ORAL,2,SCREENING 2,-1,2014-06-29,2012,,,
CDISCPILOT01,CM,01-701-1034,20,1,CALCIUM,CALCIUM,PROPHYLAXIS OR NON-THERAPEUTIC USE,ALIMENTARY TRACT AND METABOLISM,1,TABLET,QD,ORAL,3,BASELINE,1,2014-07-01,2012,,,
CDISCPILOT01,CM,01-701-1034,27,1,CALCIUM,CALCIUM,PROPHYLAXIS OR NON-THERAPEUTIC USE,ALIMENTARY TRACT AND METABOLISM,1,TABLET,QD,ORAL,4,WEEK 2,14,2014-07-15,2012,,,
CDISCPILOT01,CM,01-701-1034,34,1,CALCIUM,CALCIUM,PROPHYLAXIS OR NON-THERAPEUTIC USE,ALIMENTARY TRACT AND METABOLISM,1,TABLET,QD,ORAL,5,WEEK 4,28,2014-07-29,2012,,,
CDISCPILOT01,CM,01-701-1034,41,1,CALCIUM,CALCIUM,PROPHYLAXIS OR NON-THERAPEUTIC USE,ALIMENTARY TRACT AND METABOLISM,1,TABLET,QD,ORAL,6,AMBUL ECG REMOVAL,30,2014-07-31,2012,,,
CDISCPILOT01,CM,01-701-1034,48,1,CALCIUM,CALCIUM,PROPHYLAXIS OR NON-THERAPEUTIC USE,ALIMENTARY TRACT AND METABOLISM,1,TABLET,QD,ORAL,7,WEEK 6,42,2014-08-11,2012,,,
CDISCPILOT01,CM,01-701-1034,55,1,CALCIUM,CALCIUM,PROPHYLAXIS OR NON-THERAPEUTIC USE,ALIMENTARY TRACT AND METABOLISM,1,TABLET,QD,ORAL,8,WEEK 8,56,2014-08-26,2012,,,
CDISCPILOT01,CM,01-701-1034,62,1,CALCIUM,CALCIUM,PROPHYLAXIS OR NON-THERAPEUTIC USE,ALIMENTARY TRACT AND METABOLISM,1,TABLET,QD,ORAL,9,WEEK 12,84,2014-09-25,2012,,,
CDISCPILOT01,CM,01-701-1034,70,1,CALCIUM,CALCIUM,PROPHYLAXIS OR NON-THERAPEUTIC USE,ALIMENTARY TRACT AND METABOLISM,1,TABLET,QD,ORAL,10,WEEK 16,112,2014-10-21,2012,,,
CDISCPILOT01,CM,01-701-1034,78,1,CALCIUM,CALCIUM,PROPHYLAXIS OR NON-THERAPEUTIC USE,ALIMENTARY TRACT AND METABOLISM,1,TABLET,QD,ORAL,11,WEEK 20,140,2014-11-18,2012,,,
CDISCPILOT01,CM,01-701-1034,86,1,CALCIUM,CALCIUM,PROPHYLAXIS OR NON-THERAPEUTIC USE,ALIMENTARY TRACT AND METABOLISM,1,TABLET,QD,ORAL,12,WEEK 24,168,2014-12-17,2012,,,
CDISCPILOT01,CM,01-701-1034,94,1,CALCIUM,CALCIUM,PROPHYLAXIS OR NON-THERAPEUTIC USE,ALIMENTARY TRACT AND METABOLISM,1,TABLET,QD,ORAL,13,WEEK 26,182,2014-12-30,2012,,,
CDISCPILOT01,CM,01-701-1034,1,2,ESTROGEN NOS,UNCODED,PROPHYLAXIS OR NON-THERAPEUTIC USE,UNCODED,3,mL,OTHER,INTRAMUSCULAR,1,SCREENING 1,-7,2014-06-24,1960,,,
CDISCPILOT01,CM,01-701-1034,8,2,ESTROGEN NOS,UNCODED,PROPHYLAXIS OR NON-THERAPEUTIC USE,UNCODED,3,mL,OTHER,INTRAMUSCULAR,2,SCREENING 2,-1,2014-06-29,1960,,,
CDISCPILOT01,CM,01-701-1034,15,2,ESTROGEN NOS,UNCODED,PROPHYLAXIS OR NON-THERAPEUTIC USE,UNCODED,3,mL,OTHER,INTRAMUSCULAR,3,BASELINE,1,2014-07-01,1960,,,
CDISCPILOT01,CM,01-701-1034,22,2,ESTROGEN NOS,UNCODED,PROPHYLAXIS OR NON-THERAPEUTIC USE,UNCODED,3,mL,OTHER,INTRAMUSCULAR,4,WEEK 2,14,2014-07-15,1960,,,
CDISCPILOT01,CM,01-701-1034,29,2,ESTROGEN NOS,UNCODED,PROPHYLAXIS OR NON-THERAPEUTIC USE,UNCODED,3,mL,OTHER,INTRAMUSCULAR,5,WEEK 4,28,2014-07-29,1960,,,
CDISCPILOT01,CM,01-701-1034,36,2,ESTROGEN NOS,UNCODED,PROPHYLAXIS OR NON-THERAPEUTIC USE,UNCODED,3,mL,OTHER,INTRAMUSCULAR,6,AMBUL ECG REMOVAL,30,2014-07-31,1960,,,
CDISCPILOT01,CM,01-701-1034,43,2,ESTROGEN NOS,UNCODED,PROPHYLAXIS OR NON-THERAPEUTIC USE,UNCODED,3,mL,OTHER,INTRAMUSCULAR,7,WEEK 6,42,2014-08-11,1960,,,
CDISCPILOT01,CM,01-701-1034,50,2,ESTROGEN NOS,UNCODED,PROPHYLAXIS OR NON-THERAPEUTIC USE,UNCODED,3,mL,OTHER,INTRAMUSCULAR,8,WEEK 8,56,2014-08-26,1960,,,
CDISCPILOT01,CM,01-701-1034,57,2,ESTROGEN NOS,UNCODED,PROPHYLAXIS OR NON-THERAPEUTIC USE,UNCODED,3,mL,OTHER,INTRAMUSCULAR,9,WEEK 12,84,2014-09-25,1960,,,
CDISCPILOT01,CM,01-701-1034,65,2,ESTROGEN NOS,UNCODED,PROPHYLAXIS OR NON-THERAPEUTIC USE,UNCODED,3,mL,OTHER,INTRAMUSCULAR,10,WEEK 16,112,2014-10-21,1960,,,
CDISCPILOT01,CM,01-701-1034,73,2,ESTROGEN NOS,UNCODED,PROPHYLAXIS OR NON-THERAPEUTIC USE,UNCODED,3,mL,OTHER,INTRAMUSCULAR,11,WEEK 20,140,2014-11-18,1960,,,
CDISCPILOT01,CM,01-701-1034,81,2,ESTROGEN NOS,UNCODED,PROPHYLAXIS OR NON-THERAPEUTIC USE,UNCODED,3,mL,OTHER,INTRAMUSCULAR,12,WEEK 24,168,2014-12-17,1960,,,
CDISCPILOT01,CM,01-701-1034,89,2,ESTROGEN NOS,UNCODED,PROPHYLAXIS OR NON-THERAPEUTIC USE,UNCODED,3,mL,OTHER,INTRAMUSCULAR,13,WEEK 26,182,2014-12-30,1960,,,
CDISCPILOT01,CM,01-701-1034,5,3,EX-LAX,UNCODED,,UNCODED,1,TABLET,QD,ORAL,1,SCREENING 1,-7,2014-06-24,2001,,,
CDISCPILOT01,CM,01-701-1034,12,3,EX-LAX,UNCODED,,UNCODED,1,TABLET,QD,ORAL,2,SCREENING 2,-1,2014-06-29,2001,,,
CDISCPILOT01,CM,01-701-1034,19,3,EX-LAX,UNCODED,,UNCODED,1,TABLET,QD,ORAL,3,BASELINE,1,2014-07-01,2001,,,
CDISCPILOT01,CM,01-701-1034,26,3,EX-LAX,UNCODED,,UNCODED,1,TABLET,QD,ORAL,4,WEEK 2,14,2014-07-15,2001,,,
CDISCPILOT01,CM,01-701-1034,33,3,EX-LAX,UNCODED,,UNCODED,1,TABLET,QD,ORAL,5,WEEK 4,28,2014-07-29,2001,,,
CDISCPILOT01,CM,01-701-1034,40,3,EX-LAX,UNCODED,,UNCODED,1,TABLET,QD,ORAL,6,AMBUL ECG REMOVAL,30,2014-07-31,2001,,,
CDISCPILOT01,CM,01-701-1034,47,3,EX-LAX,UNCODED,,UNCODED,1,TABLET,QD,ORAL,7,WEEK 6,42,2014-08-11,2001,,,
CDISCPILOT01,CM,01-701-1034,54,3,EX-LAX,UNCODED,,UNCODED,1,TABLET,QD,ORAL,8,WEEK 8,56,2014-08-26,2001,,,
CDISCPILOT01,CM,01-701-1034,61,3,EX-LAX,UNCODED,,UNCODED,1,TABLET,QD,ORAL,9,WEEK 12,84,2014-09-25,2001,,,
CDISCPILOT01,CM,01-701-1034,69,3,EX-LAX,UNCODED,,UNCODED,1,TABLET,QD,ORAL,10,WEEK 16,112,2014-10-21,2001,,,
CDISCPILOT01,CM,01-701-1034,77,3,EX-LAX,UNCODED,,UNCODED,1,TABLET,QD,ORAL,11,WEEK 20,140,2014-11-18,2001,,,
CDISCPILOT01,CM,01-701-1034,85,3,EX-LAX,UNCODED,,UNCODED,1,TABLET,QD,ORAL,12,WEEK 24,168,2014-12-17,2001,,,
CDISCPILOT01,CM,01-701-1034,93,3,EX-LAX,UNCODED,,UNCODED,1,TABLET,QD,ORAL,13,WEEK 26,182,2014-12-30,2001,,,
CDISCPILOT01,CM,01-701-1034,64,8,HYDROCORTISONE,HYDROCORTISONE,,"SYSTEMIC HORMONAL PREPARATIONS, EXCL.",1,VIAL,BID,TOPICAL,9,WEEK 12,84,2014-09-25,2014-08-27,,58,
CDISCPILOT01,CM,01-701-1034,72,8,HYDROCORTISONE,HYDROCORTISONE,,"SYSTEMIC HORMONAL PREPARATIONS, EXCL.",1,VIAL,BID,TOPICAL,10,WEEK 16,112,2014-10-21,2014-08-27,,58,
CDISCPILOT01,CM,01-701-1034,80,8,HYDROCORTISONE,HYDROCORTISONE,,"SYSTEMIC HORMONAL PREPARATIONS, EXCL.",1,VIAL,BID,TOPICAL,11,WEEK 20,140,2014-11-18,2014-08-27,,58,
CDISCPILOT01,CM,01-701-1034,88,8,HYDROCORTISONE,HYDROCORTISONE,,"SYSTEMIC HORMONAL PREPARATIONS, EXCL.",1,VIAL,BID,TOPICAL,12,WEEK 24,168,2014-12-17,2014-08-27,,58,
CDISCPILOT01,CM,01-701-1034,96,8,HYDROCORTISONE,HYDROCORTISONE,,"SYSTEMIC HORMONAL PREPARATIONS, EXCL.",1,VIAL,BID,TOPICAL,13,WEEK 26,182,2014-12-30,2014-08-27,,58,
CDISCPILOT01,CM,01-701-1034,7,4,IRON,UNCODED,PROPHYLAXIS OR NON-THERAPEUTIC USE,UNCODED,1,TABLET,QD,ORAL,1,SCREENING 1,-7,2014-06-24,2012,,,
CDISCPILOT01,CM,01-701-1034,14,4,IRON,UNCODED,PROPHYLAXIS OR NON-THERAPEUTIC USE,UNCODED,1,TABLET,QD,ORAL,2,SCREENING 2,-1,2014-06-29,2012,,,
CDISCPILOT01,CM,01-701-1034,21,4,IRON,UNCODED,PROPHYLAXIS OR NON-THERAPEUTIC USE,UNCODED,1,TABLET,QD,ORAL,3,BASELINE,1,2014-07-01,2012,,,
CDISCPILOT01,CM,01-701-1034,28,4,IRON,UNCODED,PROPHYLAXIS OR NON-THERAPEUTIC USE,UNCODED,1,TABLET,QD,ORAL,4,WEEK 2,14,2014-07-15,2012,,,
CDISCPILOT01,CM,01-701-1034,35,4,IRON,UNCODED,PROPHYLAXIS OR NON-THERAPEUTIC USE,UNCODED,1,TABLET,QD,ORAL,5,WEEK 4,28,2014-07-29,2012,,,
CDISCPILOT01,CM,01-701-1034,42,4,IRON,UNCODED,PROPHYLAXIS OR NON-THERAPEUTIC USE,UNCODED,1,TABLET,QD,ORAL,6,AMBUL ECG REMOVAL,30,2014-07-31,2012,,,
CDISCPILOT01,CM,01-701-1034,49,4,IRON,UNCODED,PROPHYLAXIS OR NON-THERAPEUTIC USE,UNCODED,1,TABLET,QD,ORAL,7,WEEK 6,42,2014-08-11,2012,,,
CDISCPILOT01,CM,01-701-1034,56,4,IRON,UNCODED,PROPHYLAXIS OR NON-THERAPEUTIC USE,UNCODED,1,TABLET,QD,ORAL,8,WEEK 8,56,2014-08-26,2012,,,
CDISCPILOT01,CM,01-701-1034,63,4,IRON,UNCODED,PROPHYLAXIS OR NON-THERAPEUTIC USE,UNCODED,1,TABLET,QD,ORAL,9,WEEK 12,84,2014-09-25,2012,,,
CDISCPILOT01,CM,01-701-1034,71,4,IRON,UNCODED,PROPHYLAXIS OR NON-THERAPEUTIC USE,UNCODED,1,TABLET,QD,ORAL,10,WEEK 16,112,2014-10-21,2012,,,
CDISCPILOT01,CM,01-701-1034,79,4,IRON,UNCODED,PROPHYLAXIS OR NON-THERAPEUTIC USE,UNCODED,1,TABLET,QD,ORAL,11,WEEK 20,140,2014-11-18,2012,,,
CDISCPILOT01,CM,01-701-1034,87,4,IRON,UNCODED,PROPHYLAXIS OR NON-THERAPEUTIC USE,UNCODED,1,TABLET,QD,ORAL,12,WEEK 24,168,2014-12-17,2012,,,
CDISCPILOT01,CM,01-701-1034,95,4,IRON,UNCODED,PROPHYLAXIS OR NON-THERAPEUTIC USE,UNCODED,1,TABLET,QD,ORAL,13,WEEK 26,182,2014-12-30,2012,,,
CDISCPILOT01,CM,01-701-1034,2,5,LEVOTHROID,UNCODED,,UNCODED,0.15,mg,QD,ORAL,1,SCREENING 1,-7,2014-06-24,1977,,,
CDISCPILOT01,CM,01-701-1034,9,5,LEVOTHROID,UNCODED,,UNCODED,0.15,mg,QD,ORAL,2,SCREENING 2,-1,2014-06-29,1977,,,
CDISCPILOT01,CM,01-701-1034,16,5,LEVOTHROID,UNCODED,,UNCODED,0.15,mg,QD,ORAL,3,BASELINE,1,2014-07-01,1977,,,
CDISCPILOT01,CM,01-701-1034,23,5,LEVOTHROID,UNCODED,,UNCODED,0.15,mg,QD,ORAL,4,WEEK 2,14,2014-07-15,1977,,,
CDISCPILOT01,CM,01-701-1034,30,5,LEVOTHROID,UNCODED,,UNCODED,0.15,mg,QD,ORAL,5,WEEK 4,28,2014-07-29,1977,,,
CDISCPILOT01,CM,01-701-1034,37,5,LEVOTHROID,UNCODED,,UNCODED,0.15,mg,QD,ORAL,6,AMBUL ECG REMOVAL,30,2014-07-31,1977,,,
CDISCPILOT01,CM,01-701-1034,44,5,LEVOTHROID,UNCODED,,UNCODED,0.15,mg,QD,ORAL,7,WEEK 6,42,2014-08-11,1977,,,
CDISCPILOT01,CM,01-701-1034,51,5,LEVOTHROID,UNCODED,,UNCODED,0.15,mg,QD,ORAL,8,WEEK 8,56,2014-08-26,1977,,,
CDISCPILOT01,CM,01-701-1034,58,5,LEVOTHROID,UNCODED,,UNCODED,0.15,mg,QD,ORAL,9,WEEK 12,84,2014-09-25,1977,,,
CDISCPILOT01,CM,01-701-1034,66,5,LEVOTHROID,UNCODED,,UNCODED,0.15,mg,QD,ORAL,10,WEEK 16,112,2014-10-21,1977,,,
CDISCPILOT01,CM,01-701-1034,74,5,LEVOTHROID,UNCODED,,UNCODED,0.15,mg,QD,ORAL,11,WEEK 20,140,2014-11-18,1977,,,
CDISCPILOT01,CM,01-701-1034,82,5,LEVOTHROID,UNCODED,,UNCODED,0.15,mg,QD,ORAL,12,WEEK 24,168,2014-12-17,1977,,,
CDISCPILOT01,CM,01-701-1034,90,5,LEVOTHROID,UNCODED,,UNCODED,0.15,mg,QD,ORAL,13,WEEK 26,182,2014-12-30,1977,,,
CDISCPILOT01,CM,01-701-1034,3,6,VITAMIN C,UNCODED,PROPHYLAXIS OR NON-THERAPEUTIC USE,UNCODED,1,TABLET,QD,ORAL,1,SCREENING 1,-7,2014-06-24,1986,,,
CDISCPILOT01,CM,01-701-1034,10,6,VITAMIN C,UNCODED,PROPHYLAXIS OR NON-THERAPEUTIC USE,UNCODED,1,TABLET,QD,ORAL,2,SCREENING 2,-1,2014-06-29,1986,,,
CDISCPILOT01,CM,01-701-1034,17,6,VITAMIN C,UNCODED,PROPHYLAXIS OR NON-THERAPEUTIC USE,UNCODED,1,TABLET,QD,ORAL,3,BASELINE,1,2014-07-01,1986,,,
CDISCPILOT01,CM,01-701-1034,24,6,VITAMIN C,UNCODED,PROPHYLAXIS OR NON-THERAPEUTIC USE,UNCODED,1,TABLET,QD,ORAL,4,WEEK 2,14,2014-07-15,1986,,,
CDISCPILOT01,CM,01-701-1034,31,6,VITAMIN C,UNCODED,PROPHYLAXIS OR NON-THERAPEUTIC USE,UNCODED,1,TABLET,QD,ORAL,5,WEEK 4,28,2014-07-29,1986,,,
CDISCPILOT01,CM,01-701-1034,38,6,VITAMIN C,UNCODED,PROPHYLAXIS OR NON-THERAPEUTIC USE,UNCODED,1,TABLET,QD,ORAL,6,AMBUL ECG REMOVAL,30,2014-07-31,1986,,,
CDISCPILOT01,CM,01-701-1034,45,6,VITAMIN C,UNCODED,PROPHYLAXIS OR NON-THERAPEUTIC USE,UNCODED,1,TABLET,QD,ORAL,7,WEEK 6,42,2014-08-11,1986,,,
CDISCPILOT01,CM,01-701-1034,52,6,VITAMIN C,UNCODED,PROPHYLAXIS OR NON-THERAPEUTIC USE,UNCODED,1,TABLET,QD,ORAL,8,WEEK 8,56,2014-08-26,1986,,,
CDISCPILOT01,CM,01-701-1034,59,6,VITAMIN C,UNCODED,PROPHYLAXIS OR NON-THERAPEUTIC USE,UNCODED,1,TABLET,QD,ORAL,9,WEEK 12,84,2014-09-25,1986,,,
CDISCPILOT01,CM,01-701-1034,67,6,VITAMIN C,UNCODED,PROPHYLAXIS OR NON-THERAPEUTIC USE,UNCODED,1,TABLET,QD,ORAL,10,WEEK 16,112,2014-10-21,1986,,,
CDISCPILOT01,CM,01-701-1034,75,6,VITAMIN C,UNCODED,PROPHYLAXIS OR NON-THERAPEUTIC USE,UNCODED,1,TABLET,QD,ORAL,11,WEEK 20,140,2014-11-18,1986,,,
CDISCPILOT01,CM,01-701-1034,83,6,VITAMIN C,UNCODED,PROPHYLAXIS OR NON-THERAPEUTIC USE,UNCODED,1,TABLET,QD,ORAL,12,WEEK 24,168,2014-12-17,1986,,,
CDISCPILOT01,CM,01-701-1034,91,6,VITAMIN C,UNCODED,PROPHYLAXIS OR NON-THERAPEUTIC USE,UNCODED,1,TABLET,QD,ORAL,13,WEEK 26,182,2014-12-30,1986,,,
CDISCPILOT01,CM,01-701-1034,4,7,VITAMIN E,UNCODED,PROPHYLAXIS OR NON-THERAPEUTIC USE,UNCODED,1,TABLET,QD,ORAL,1,SCREENING 1,-7,2014-06-24,1986,,,
CDISCPILOT01,CM,01-701-1034,11,7,VITAMIN E,UNCODED,PROPHYLAXIS OR NON-THERAPEUTIC USE,UNCODED,1,TABLET,QD,ORAL,2,SCREENING 2,-1,2014-06-29,1986,,,
CDISCPILOT01,CM,01-701-1034,18,7,VITAMIN E,UNCODED,PROPHYLAXIS OR NON-THERAPEUTIC USE,UNCODED,1,TABLET,QD,ORAL,3,BASELINE,1,2014-07-01,1986,,,
CDISCPILOT01,CM,01-701-1034,25,7,VITAMIN E,UNCODED,PROPHYLAXIS OR NON-THERAPEUTIC USE,UNCODED,1,TABLET,QD,ORAL,4,WEEK 2,14,2014-07-15,1986,,,
CDISCPILOT01,CM,01-701-1034,32,7,VITAMIN E,UNCODED,PROPHYLAXIS OR NON-THERAPEUTIC USE,UNCODED,1,TABLET,QD,ORAL,5,WEEK 4,28,2014-07-29,1986,,,
CDISCPILOT01,CM,01-701-1034,39,7,VITAMIN E,UNCODED,PROPHYLAXIS OR NON-THERAPEUTIC USE,UNCODED,1,TABLET,QD,ORAL,6,AMBUL ECG REMOVAL,30,2014-07-31,1986,,,
CDISCPILOT01,CM,01-701-1034,46,7,VITAMIN E,UNCODED,PROPHYLAXIS OR NON-THERAPEUTIC USE,UNCODED,1,TABLET,QD,ORAL,7,WEEK 6,42,2014-08-11,1986,,,
CDISCPILOT01,CM,01-701-1034,53,7,VITAMIN E,UNCODED,PROPHYLAXIS OR NON-THERAPEUTIC USE,UNCODED,1,TABLET,QD,ORAL,8,WEEK 8,56,2014-08-26,1986,,,
CDISCPILOT01,CM,01-701-1034,60,7,VITAMIN E,UNCODED,PROPHYLAXIS OR NON-THERAPEUTIC USE,UNCODED,1,TABLET,QD,ORAL,9,WEEK 12,84,2014-09-25,1986,,,
CDISCPILOT01,CM,01-701-1034,68,7,VITAMIN E,UNCODED,PROPHYLAXIS OR NON-THERAPEUTIC USE,UNCODED,1,TABLET,QD,ORAL,10,WEEK 16,112,2014-10-21,1986,,,
CDISCPILOT01,CM,01-701-1034,76,7,VITAMIN E,UNCODED,PROPHYLAXIS OR NON-THERAPEUTIC USE,UNCODED,1,TABLET,QD,ORAL,11,WEEK 20,140,2014-11-18,1986,,,
CDISCPILOT01,CM,01-701-1034,84,7,VITAMIN E,UNCODED,PROPHYLAXIS OR NON-THERAPEUTIC USE,UNCODED,1,TABLET,QD,ORAL,12,WEEK 24,168,2014-12-17,1986,,,
CDISCPILOT01,CM,01-701-1034,92,7,VITAMIN E,UNCODED,PROPHYLAXIS OR NON-THERAPEUTIC USE,UNCODED,1,TABLET,QD,ORAL,13,WEEK 26,182,2014-12-30,1986,,,
CDISCPILOT01,CM,01-701-1047,2,1,ALEVE,NAPROXEN SODIUM,,RESPIRATORY SYSTEM,250,TABLET,PRN,ORAL,1,SCREENING 1,-7,2013-01-22,2009,,,
CDISCPILOT01,CM,01-701-1047,7,1,ALEVE,NAPROXEN SODIUM,,RESPIRATORY SYSTEM,250,TABLET,PRN,ORAL,2,SCREENING 2,-1,2013-02-10,2009,,,
CDISCPILOT01,CM,01-701-1047,13,1,ALEVE,NAPROXEN SODIUM,,RESPIRATORY SYSTEM,250,TABLET,PRN,ORAL,3,BASELINE,1,2013-02-12,2009,,,
CDISCPILOT01,CM,01-701-1047,18,1,ALEVE,NAPROXEN SODIUM,,RESPIRATORY SYSTEM,250,TABLET,PRN,ORAL,4,WEEK 2,14,2013-02-25,2009,,,
CDISCPILOT01,CM,01-701-1047,23,1,ALEVE,NAPROXEN SODIUM,,RESPIRATORY SYSTEM,250,TABLET,PRN,ORAL,5,WEEK 4,28,2013-03-10,2009,,,
CDISCPILOT01,CM,01-701-1047,30,1,ALEVE,NAPROXEN SODIUM,,RESPIRATORY SYSTEM,250,TABLET,PRN,ORAL,6,AMBUL ECG REMOVAL,30,2013-03-29,2009,,,
CDISCPILOT01,CM,01-701-1047,37,1,ALEVE,NAPROXEN SODIUM,,RESPIRATORY SYSTEM,250,TABLET,PRN,ORAL,201,RETRIEVAL,168,2013-07-28,2009,,,
CDISCPILOT01,CM,01-701-1047,1,2,CENTRUM,UNCODED,PROPHYLAXIS OR NON-THERAPEUTIC USE,UNCODED,1,TABLET,QD,ORAL,1,SCREENING 1,-7,2013-01-22,2002,,,
CDISCPILOT01,CM,01-701-1047,6,2,CENTRUM,UNCODED,PROPHYLAXIS OR NON-THERAPEUTIC USE,UNCODED,1,TABLET,QD,ORAL,2,SCREENING 2,-1,2013-02-10,2002,,,
CDISCPILOT01,CM,01-701-1047,12,2,CENTRUM,UNCODED,PROPHYLAXIS OR NON-THERAPEUTIC USE,UNCODED,1,TABLET,QD,ORAL,3,BASELINE,1,2013-02-12,2002,,,
CDISCPILOT01,CM,01-701-1047,17,2,CENTRUM,UNCODED,PROPHYLAXIS OR NON-THERAPEUTIC USE,UNCODED,1,TABLET,QD,ORAL,4,WEEK 2,14,2013-02-25,2002,,,
CDISCPILOT01,CM,01-701-1047,22,2,CENTRUM,UNCODED,PROPHYLAXIS OR NON-THERAPEUTIC USE,UNCODED,1,TABLET,QD,ORAL,5,WEEK 4,28,2013-03-10,2002,,,
CDISCPILOT01,CM,01-701-1047,29,2,CENTRUM,UNCODED,PROPHYLAXIS OR NON-THERAPEUTIC USE,UNCODED,1,TABLET,QD,ORAL,6,AMBUL ECG REMOVAL,30,2013-03-29,2002,,,
CDISCPILOT01,CM,01-701-1047,36,2,CENTRUM,UNCODED,PROPHYLAXIS OR NON-THERAPEUTIC USE,UNCODED,1,TABLET,QD,ORAL,201,RETRIEVAL,168,2013-07-28,2002,,,
CDISCPILOT01,CM,01-701-1047,11,6,FELDENE,UNCODED,,UNCODED,10,mg,QD,ORAL,2,SCREENING 2,-1,2013-02-10,2013-02-01,2013-02-01,-11,-11
CDISCPILOT01,CM,01-701-1047,5,3,PAPAYA,UNCODED,,UNCODED,2,TABLET,PRN,ORAL,1,SCREENING 1,-7,2013-01-22,2012-10,,,
CDISCPILOT01,CM,01-701-1047,10,3,PAPAYA,UNCODED,,UNCODED,2,TABLET,PRN,ORAL,2,SCREENING 2,-1,2013-02-10,2012-10,,,
CDISCPILOT01,CM,01-701-1047,16,3,PAPAYA,UNCODED,,UNCODED,2,TABLET,PRN,ORAL,3,BASELINE,1,2013-02-12,2012-10,,,
CDISCPILOT01,CM,01-701-1047,21,3,PAPAYA,UNCODED,,UNCODED,2,TABLET,PRN,ORAL,4,WEEK 2,14,2013-02-25,2012-10,,,
CDISCPILOT01,CM,01-701-1047,26,3,PAPAYA,UNCODED,,UNCODED,2,TABLET,PRN,ORAL,5,WEEK 4,28,2013-03-10,2012-10,,,
CDISCPILOT01,CM,01-701-1047,33,3,PAPAYA,UNCODED,,UNCODED,2,TABLET,PRN,ORAL,6,AMBUL ECG REMOVAL,30,2013-03-29,2012-10,,,
CDISCPILOT01,CM,01-701-1047,40,3,PAPAYA,UNCODED,,UNCODED,2,TABLET,PRN,ORAL,201,RETRIEVAL,168,2013-07-28,2012-10,,,
CDISCPILOT01,CM,01-701-1047,3,4,PSORCON,UNCODED,,UNCODED,0.5,% (v/v),QID,TOPICAL,1,SCREENING 1,-7,2013-01-22,2009,,,
CDISCPILOT01,CM,01-701-1047,8,4,PSORCON,UNCODED,,UNCODED,0.5,% (v/v),QID,TOPICAL,2,SCREENING 2,-1,2013-02-10,2009,,,
CDISCPILOT01,CM,01-701-1047,14,4,PSORCON,UNCODED,,UNCODED,0.5,% (v/v),QID,TOPICAL,3,BASELINE,1,2013-02-12,2009,,,
CDISCPILOT01,CM,01-701-1047,19,4,PSORCON,UNCODED,,UNCODED,0.5,% (v/v),QID,TOPICAL,4,WEEK 2,14,2013-02-25,2009,,,
CDISCPILOT01,CM,01-701-1047,24,4,PSORCON,UNCODED,,UNCODED,0.5,% (v/v),QID,TOPICAL,5,WEEK 4,28,2013-03-10,2009,,,
CDISCPILOT01,CM,01-701-1047,31,4,PSORCON,UNCODED,,UNCODED,0.5,% (v/v),QID,TOPICAL,6,AMBUL ECG REMOVAL,30,2013-03-29,2009,,,
CDISCPILOT01,CM,01-701-1047,38,4,PSORCON,UNCODED,,UNCODED,0.5,% (v/v),QID,TOPICAL,201,RETRIEVAL,168,2013-07-28,2009,,,
CDISCPILOT01,CM,01-701-1047,27,7,ROBITUSSIN-DM,UNCODED,,UNCODED,2,tsp,QID,ORAL,5,WEEK 4,28,2013-03-10,2013-03-07,,24,
CDISCPILOT01,CM,01-701-1047,34,7,ROBITUSSIN-DM,UNCODED,,UNCODED,2,tsp,QID,ORAL,6,AMBUL ECG REMOVAL,30,2013-03-29,2013-03-07,,24,
CDISCPILOT01,CM,01-701-1047,41,7,ROBITUSSIN-DM,UNCODED,,UNCODED,2,tsp,QID,ORAL,201,RETRIEVAL,168,2013-07-28,2013-03-07,,24,
CDISCPILOT01,CM,01-701-1047,28,8,SUDAFED,UNCODED,,UNCODED,2,TABLET,QID,ORAL,5,WEEK 4,28,2013-03-10,2013-03-07,,24,
CDISCPILOT01,CM,01-701-1047,35,8,SUDAFED,UNCODED,,UNCODED,2,TABLET,QID,ORAL,6,AMBUL ECG REMOVAL,30,2013-03-29,2013-03-07,,24,
CDISCPILOT01,CM,01-701-1047,42,8,SUDAFED,UNCODED,,UNCODED,2,TABLET,QID,ORAL,201,RETRIEVAL,168,2013-07-28,2013-03-07,,24,
CDISCPILOT01,CM,01-701-1047,4,5,SYNTHROID,UNCODED,,UNCODED,0.15,mg,QD,ORAL,1,SCREENING 1,-7,2013-01-22,2009,,,
CDISCPILOT01,CM,01-701-1047,9,5,SYNTHROID,UNCODED,,UNCODED,0.15,mg,QD,ORAL,2,SCREENING 2,-1,2013-02-10,2009,,,
CDISCPILOT01,CM,01-701-1047,15,5,SYNTHROID,UNCODED,,UNCODED,0.15,mg,QD,ORAL,3,BASELINE,1,2013-02-12,2009,,,
CDISCPILOT01,CM,01-701-1047,20,5,SYNTHROID,UNCODED,,UNCODED,0.15,mg,QD,ORAL,4,WEEK 2,14,2013-02-25,2009,,,
CDISCPILOT01,CM,01-701-1047,25,5,SYNTHROID,UNCODED,,UNCODED,0.15,mg,QD,ORAL,5,WEEK 4,28,2013-03-10,2009,,,
CDISCPILOT01,CM,01-701-1047,32,5,SYNTHROID,UNCODED,,UNCODED,0.15,mg,QD,ORAL,6,AMBUL ECG REMOVAL,30,2013-03-29,2009,,,
CDISCPILOT01,CM,01-701-1047,39,5,SYNTHROID,UNCODED,,UNCODED,0.15,mg,QD,ORAL,201,RETRIEVAL,168,2013-07-28,2009,,,
CDISCPILOT01,CM,01-701-1097,1,1,CENTRUM,UNCODED,PROPHYLAXIS OR NON-THERAPEUTIC USE,UNCODED,1,TABLET,QD,ORAL,1,SCREENING 1,-7,2013-12-23,2013-10,,,
CDISCPILOT01,CM,01-701-1097,2,1,CENTRUM,UNCODED,PROPHYLAXIS OR NON-THERAPEUTIC USE,UNCODED,1,TABLET,QD,ORAL,2,SCREENING 2,-1,2013-12-30,2013-10,,,
CDISCPILOT01,CM,01-701-1097,3,1,CENTRUM,UNCODED,PROPHYLAXIS OR NON-THERAPEUTIC USE,UNCODED,1,TABLET,QD,ORAL,3,BASELINE,1,2014-01-01,2013-10,,,
CDISCPILOT01,CM,01-701-1097,4,1,CENTRUM,UNCODED,PROPHYLAXIS OR NON-THERAPEUTIC USE,UNCODED,1,TABLET,QD,ORAL,4,WEEK 2,14,2014-01-15,2013-10,,,
CDISCPILOT01,CM,01-701-1097,5,1,CENTRUM,UNCODED,PROPHYLAXIS OR NON-THERAPEUTIC USE,UNCODED,1,TABLET,QD,ORAL,5,WEEK 4,28,2014-01-29,2013-10,,,
CDISCPILOT01,CM,01-701-1097,6,1,CENTRUM,UNCODED,PROPHYLAXIS OR NON-THERAPEUTIC USE,UNCODED,1,TABLET,QD,ORAL,6,AMBUL ECG REMOVAL,30,2014-02-04,2013-10,,,
CDISCPILOT01,CM,01-701-1097,7,1,CENTRUM,UNCODED,PROPHYLAXIS OR NON-THERAPEUTIC USE,UNCODED,1,TABLET,QD,ORAL,7,WEEK 6,42,2014-02-11,2013-10,,,
CDISCPILOT01,CM,01-701-1097,8,1,CENTRUM,UNCODED,PROPHYLAXIS OR NON-THERAPEUTIC USE,UNCODED,1,TABLET,QD,ORAL,8,WEEK 8,56,2014-02-26,2013-10,,,
CDISCPILOT01,CM,01-701-1097,10,1,CENTRUM,UNCODED,PROPHYLAXIS OR NON-THERAPEUTIC USE,UNCODED,1,TABLET,QD,ORAL,9,WEEK 12,84,2014-03-26,2013-10,,,
CDISCPILOT01,CM,01-701-1097,12,1,CENTRUM,UNCODED,PROPHYLAXIS OR NON-THERAPEUTIC USE,UNCODED,1,TABLET,QD,ORAL,10,WEEK 16,112,2014-04-23,2013-10,,,
CDISCPILOT01,CM,01-701-1097,14,1,CENTRUM,UNCODED,PROPHYLAXIS OR NON-THERAPEUTIC USE,UNCODED,1,TABLET,QD,ORAL,11,WEEK 20,140,2014-05-21,2013-10,,,
CDISCPILOT01,CM,01-701-1097,15,1,CENTRUM,UNCODED,PROPHYLAXIS OR NON-THERAPEUTIC USE,UNCODED,1,TABLET,QD,ORAL,12,WEEK 24,168,2014-06-18,2013-10,,,
CDISCPILOT01,CM,01-701-1097,17,1,CENTRUM,UNCODED,PROPHYLAXIS OR NON-THERAPEUTIC USE,UNCODED,1,TABLET,QD,ORAL,13,WEEK 26,182,2014-07-09,2013-10,,,
CDISCPILOT01,CM,01-701-1097,9,2,HYDROCORTISONE,HYDROCORTISONE,,"SYSTEMIC HORMONAL PREPARATIONS, EXCL.",1,VIAL,QD,TOPICAL,8,WEEK 8,56,2014-02-26,2014-02-20,2014-02-25,51,56
CDISCPILOT01,CM,01-701-1097,11,3,HYDROCORTISONE,HYDROCORTISONE,,"SYSTEMIC HORMONAL PREPARATIONS, EXCL.",1,VIAL,QD,TOPICAL,9,WEEK 12,84,2014-03-26,2014-03-21,2014-03-23,80,82
CDISCPILOT01,CM,01-701-1097,13,4,HYDROCORTISONE,HYDROCORTISONE,,"SYSTEMIC HORMONAL PREPARATIONS, EXCL.",1,VIAL,QD,TOPICAL,10,WEEK 16,112,2014-04-23,2014-04-18,2014-04-22,108,112
CDISCPILOT01,CM,01-701-1097,16,5,HYDROCORTISONE,HYDROCORTISONE,,"SYSTEMIC HORMONAL PREPARATIONS, EXCL.",1,VIAL,PRN,TOPICAL,12,WEEK 24,168,2014-06-18,2014-05-23,,143,
CDISCPILOT01,CM,01-701-1097,18,5,HYDROCORTISONE,HYDROCORTISONE,,"SYSTEMIC HORMONAL PREPARATIONS, EXCL.",1,VIAL,PRN,TOPICAL,13,WEEK 26,182,2014-07-09,2014-05-23,,143,
CDISCPILOT01,CM,01-701-1111,13,7,"HYDROCORTISONE, TOPICAL",UNCODED,,UNCODED,1,VIAL,PRN,TOPICAL,2,SCREENING 2,-1,2012-09-05,2012-09-02,2012-09-04,-5,-3
CDISCPILOT01,CM,01-701-1111,6,1,KEFLEX,UNCODED,,UNCODED,500,mg,QID,ORAL,1,SCREENING 1,-7,2012-08-25,2012-07-08,,-61,
CDISCPILOT01,CM,01-701-1111,12,1,KEFLEX,UNCODED,,UNCODED,500,mg,QID,ORAL,2,SCREENING 2,-1,2012-09-05,2012-07-08,,-61,
CDISCPILOT01,CM,01-701-1111,19,1,KEFLEX,UNCODED,,UNCODED,500,mg,QID,ORAL,3,BASELINE,1,2012-09-07,2012-07-08,,-61,
CDISCPILOT01,CM,01-701-1111,25,1,KEFLEX,UNCODED,,UNCODED,500,mg,QID,ORAL,4,WEEK 2,14,2012-09-17,2012-07-08,,-61,
CDISCPILOT01,CM,01-701-1111,31,1,KEFLEX,UNCODED,,UNCODED,500,mg,QID,ORAL,101,AE FOLLOW-UP,,2012-09-29,2012-07-08,,-61,
CDISCPILOT01,CM,01-701-1111,37,1,KEFLEX,UNCODED,,UNCODED,500,mg,QID,ORAL,201,RETRIEVAL,168,2013-02-22,2012-07-08,,-61,
CDISCPILOT01,CM,01-701-1111,4,2,LISINOPRIL,UNCODED,,UNCODED,2.5,mg,QD,ORAL,1,SCREENING 1,-7,2012-08-25,2006,,,
CDISCPILOT01,CM,01-701-1111,10,2,LISINOPRIL,UNCODED,,UNCODED,2.5,mg,QD,ORAL,2,SCREENING 2,-1,2012-09-05,2006,,,
CDISCPILOT01,CM,01-701-1111,17,2,LISINOPRIL,UNCODED,,UNCODED,2.5,mg,QD,ORAL,3,BASELINE,1,2012-09-07,2006,,,
CDISCPILOT01,CM,01-701-1111,23,2,LISINOPRIL,UNCODED,,UNCODED,2.5,mg,QD,ORAL,4,WEEK 2,14,2012-09-17,2006,,,
CDISCPILOT01,CM,01-701-1111,29,2,LISINOPRIL,UNCODED,,UNCODED,2.5,mg,QD,ORAL,101,AE FOLLOW-UP,,2012-09-29,2006,,,
CDISCPILOT01,CM,01-701-1111,35,2,LISINOPRIL,UNCODED,,UNCODED,2.5,mg,QD,ORAL,201,RETRIEVAL,168,2013-02-22,2006,,,
CDISCPILOT01,CM,01-701-1111,5,3,MOTRIN,UNCODED,,UNCODED,1,TABLET,PRN,ORAL,1,SCREENING 1,-7,2012-08-25,2009,,,
CDISCPILOT01,CM,01-701-1111,11,3,MOTRIN,UNCODED,,UNCODED,1,TABLET,PRN,ORAL,2,SCREENING 2,-1,2012-09-05,2009,,,
CDISCPILOT01,CM,01-701-1111,18,3,MOTRIN,UNCODED,,UNCODED,1,TABLET,PRN,ORAL,3,BASELINE,1,2012-09-07,2009,,,
CDISCPILOT01,CM,01-701-1111,24,3,MOTRIN,UNCODED,,UNCODED,1,TABLET,PRN,ORAL,4,WEEK 2,14,2012-09-17,2009,,,
CDISCPILOT01,CM,01-701-1111,30,3,MOTRIN,UNCODED,,UNCODED,1,TABLET,PRN,ORAL,101,AE FOLLOW-UP,,2012-09-29,2009,,,
CDISCPILOT01,CM,01-701-1111,36,3,MOTRIN,UNCODED,,UNCODED,1,TABLET,PRN,ORAL,201,RETRIEVAL,168,2013-02-22,2009,,,
CDISCPILOT01,CM,01-701-1111,2,4,PREMARIN,ESTROGENS CONJUGATED,,GENITO URINARY SYSTEM AND SEX HORMONES,0.625,mg,,ORAL,1,SCREENING 1,-7,2012-08-25,1996,,,
CDISCPILOT01,CM,01-701-1111,8,4,PREMARIN,ESTROGENS CONJUGATED,,GENITO URINARY SYSTEM AND SEX HORMONES,0.625,mg,,ORAL,2,SCREENING 2,-1,2012-09-05,1996,,,
CDISCPILOT01,CM,01-701-1111,15,4,PREMARIN,ESTROGENS CONJUGATED,,GENITO URINARY SYSTEM AND SEX HORMONES,0.625,mg,,ORAL,3,BASELINE,1,2012-09-07,1996,,,
CDISCPILOT01,CM,01-701-1111,21,4,PREMARIN,ESTROGENS CONJUGATED,,GENITO URINARY SYSTEM AND SEX HORMONES,0.625,mg,,ORAL,4,WEEK 2,14,2012-09-17,1996,,,
CDISCPILOT01,CM,01-701-1111,27,4,PREMARIN,ESTROGENS CONJUGATED,,GENITO URINARY SYSTEM AND SEX HORMONES,0.625,mg,,ORAL,101,AE FOLLOW-UP,,2012-09-29,1996,,,
CDISCPILOT01,CM,01-701-1111,33,4,PREMARIN,ESTROGENS CONJUGATED,,GENITO URINARY SYSTEM AND SEX HORMONES,0.625,mg,,ORAL,201,RETRIEVAL,168,2013-02-22,1996,,,
CDISCPILOT01,CM,01-701-1111,3,5,PROVERA,UNCODED,,UNCODED,2.5,mg,,ORAL,1,SCREENING 1,-7,2012-08-25,1996,,,
CDISCPILOT01,CM,01-701-1111,9,5,PROVERA,UNCODED,,UNCODED,2.5,mg,,ORAL,2,SCREENING 2,-1,2012-09-05,1996,,,
CDISCPILOT01,CM,01-701-1111,16,5,PROVERA,UNCODED,,UNCODED,2.5,mg,,ORAL,3,BASELINE,1,2012-09-07,1996,,,
CDISCPILOT01,CM,01-701-1111,22,5,PROVERA,UNCODED,,UNCODED,2.5,mg,,ORAL,4,WEEK 2,14,2012-09-17,1996,,,
CDISCPILOT01,CM,01-701-1111,28,5,PROVERA,UNCODED,,UNCODED,2.5,mg,,ORAL,101,AE FOLLOW-UP,,2012-09-29,1996,,,
CDISCPILOT01,CM,01-701-1111,34,5,PROVERA,UNCODED,,UNCODED,2.5,mg,,ORAL,201,RETRIEVAL,168,2013-02-22,1996,,,
CDISCPILOT01,CM,01-701-1111,1,6,SYNTHROID,UNCODED,,UNCODED,0.075,mg,QD,ORAL,1,SCREENING 1,-7,2012-08-25,1983,,,
CDISCPILOT01,CM,01-701-1111,7,6,SYNTHROID,UNCODED,,UNCODED,0.075,mg,QD,ORAL,2,SCREENING 2,-1,2012-09-05,1983,,,
CDISCPILOT01,CM,01-701-1111,14,6,SYNTHROID,UNCODED,,UNCODED,0.075,mg,QD,ORAL,3,BASELINE,1,2012-09-07,1983,,,
CDISCPILOT01,CM,01-701-1111,20,6,SYNTHROID,UNCODED,,UNCODED,0.075,mg,QD,ORAL,4,WEEK 2,14,2012-09-17,1983,,,
CDISCPILOT01,CM,01-701-1111,26,6,SYNTHROID,UNCODED,,UNCODED,0.075,mg,QD,ORAL,101,AE FOLLOW-UP,,2012-09-29,1983,,,
CDISCPILOT01,CM,01-701-1111,32,6,SYNTHROID,UNCODED,,UNCODED,0.075,mg,QD,ORAL,201,RETRIEVAL,168,2013-02-22,1983,,,
CDISCPILOT01,CM,01-701-1115,1,1,ASPIRIN,ACETYLSALICYLIC ACID,,NERVOUS SYSTEM,1,TABLET,QD,ORAL,1,SCREENING 1,-7,2012-11-23,2011,,,
CDISCPILOT01,CM,01-701-1115,3,1,ASPIRIN,ACETYLSALICYLIC ACID,,NERVOUS SYSTEM,1,TABLET,QD,ORAL,2,SCREENING 2,-1,2012-11-28,2011,,,
CDISCPILOT01,CM,01-701-1115,5,1,ASPIRIN,ACETYLSALICYLIC ACID,,NERVOUS SYSTEM,1,TABLET,QD,ORAL,3,BASELINE,1,2012-11-30,2011,,,
CDISCPILOT01,CM,01-701-1115,7,1,ASPIRIN,ACETYLSALICYLIC ACID,,NERVOUS SYSTEM,1,TABLET,QD,ORAL,4,WEEK 2,14,2012-12-13,2011,,,
CDISCPILOT01,CM,01-701-1115,9,1,ASPIRIN,ACETYLSALICYLIC ACID,,NERVOUS SYSTEM,1,TABLET,QD,ORAL,5,WEEK 4,28,2012-12-26,2011,,,
CDISCPILOT01,CM,01-701-1115,11,1,ASPIRIN,ACETYLSALICYLIC ACID,,NERVOUS SYSTEM,1,TABLET,QD,ORAL,6,AMBUL ECG REMOVAL,30,2012-12-28,2011,,,
CDISCPILOT01,CM,01-701-1115,13,1,ASPIRIN,ACETYLSALICYLIC ACID,,NERVOUS SYSTEM,1,TABLET,QD,ORAL,7,WEEK 6,42,2013-01-10,2011,,,
CDISCPILOT01,CM,01-701-1115,15,1,ASPIRIN,ACETYLSALICYLIC ACID,,NERVOUS SYSTEM,1,TABLET,QD,ORAL,8,WEEK 8,56,2013-01-23,2011,,,
CDISCPILOT01,CM,01-701-1115,18,1,ASPIRIN,ACETYLSALICYLIC ACID,,NERVOUS SYSTEM,1,TABLET,QD,ORAL,101,AE FOLLOW-UP,,2013-02-14,2011,,,
CDISCPILOT01,CM,01-701-1115,21,1,ASPIRIN,ACETYLSALICYLIC ACID,,NERVOUS SYSTEM,1,TABLET,QD,ORAL,201,RETRIEVAL,168,2013-05-20,2011,,,
CDISCPILOT01,CM,01-701-1115,25,4,ASPIRIN,ACETYLSALICYLIC ACID,PROPHYLAXIS OR NON-THERAPEUTIC USE,NERVOUS SYSTEM,80,mg,QD,ORAL,201,RETRIEVAL,168,2013-05-20,2013-04-29,,151,
CDISCPILOT01,CM,01-701-1115,26,5,FEOSOL,UNCODED,PROPHYLAXIS OR NON-THERAPEUTIC USE,UNCODED,325,mg,BID,ORAL,201,RETRIEVAL,168,2013-05-20,2013-04-29,,151,
CDISCPILOT01,CM,01-701-1115,17,3,"HYDROCORTISONE, TOPICAL",UNCODED,,UNCODED,1,VIAL,PRN,TOPICAL,8,WEEK 8,56,2013-01-23,2013-01-11,,43,
CDISCPILOT01,CM,01-701-1115,20,3,"HYDROCORTISONE, TOPICAL",UNCODED,,UNCODED,1,VIAL,PRN,TOPICAL,101,AE FOLLOW-UP,,2013-02-14,2013-01-11,,43,
CDISCPILOT01,CM,01-701-1115,23,3,"HYDROCORTISONE, TOPICAL",UNCODED,,UNCODED,1,VIAL,PRN,TOPICAL,201,RETRIEVAL,168,2013-05-20,2013-01-11,,43,
CDISCPILOT01,CM,01-701-1115,24,6,HYTRIN,UNCODED,,UNCODED,2,mg,QD,ORAL,201,RETRIEVAL,168,2013-05-20,2013-04-19,2013-05-14,141,166
CDISCPILOT01,CM,01-701-1115,2,2,METAMUCIL,UNCODED,,UNCODED,1,Tbsp,PRN,ORAL,1,SCREENING 1,-7,2012-11-23,2012-08,,,
CDISCPILOT01,CM,01-701-1115,4,2,METAMUCIL,UNCODED,,UNCODED,1,Tbsp,PRN,ORAL,2,SCREENING 2,-1,2012-11-28,2012-08,,,
CDISCPILOT01,CM,01-701-1115,6,2,METAMUCIL,UNCODED,,UNCODED,1,Tbsp,PRN,ORAL,3,BASELINE,1,2012-11-30,2012-08,,,
CDISCPILOT01,CM,01-701-1115,8,2,METAMUCIL,UNCODED,,UNCODED,1,Tbsp,PRN,ORAL,4,WEEK 2,14,2012-12-13,2012-08,,,
CDISCPILOT01,CM,01-701-1115,10,2,METAMUCIL,UNCODED,,UNCODED,1,Tbsp,PRN,ORAL,5,WEEK 4,28,2012-12-26,2012-08,,,
CDISCPILOT01,CM,01-701-1115,12,2,METAMUCIL,UNCODED,,UNCODED,1,Tbsp,PRN,ORAL,6,AMBUL ECG REMOVAL,30,2012-12-28,2012-08,,,
CDISCPILOT01,CM,01-701-1115,14,2,METAMUCIL,UNCODED,,UNCODED,1,Tbsp,PRN,ORAL,7,WEEK 6,42,2013-01-10,2012-08,,,
CDISCPILOT01,CM,01-701-1115,16,2,METAMUCIL,UNCODED,,UNCODED,1,Tbsp,PRN,ORAL,8,WEEK 8,56,2013-01-23,2012-08,,,
CDISCPILOT01,CM,01-701-1115,19,2,METAMUCIL,UNCODED,,UNCODED,1,Tbsp,PRN,ORAL,101,AE FOLLOW-UP,,2013-02-14,2012-08,,,
CDISCPILOT01,CM,01-701-1115,22,2,METAMUCIL,UNCODED,,UNCODED,1,Tbsp,PRN,ORAL,201,RETRIEVAL,168,2013-05-20,2012-08,,,
CDISCPILOT01,CM,01-701-1115,27,7,PRAVACHOL,UNCODED,,UNCODED,20,mg,QD,ORAL,201,RETRIEVAL,168,2013-05-20,2013-05-08,,160,
CDISCPILOT01,CM,01-701-1118,1,1,ASPIRIN,ACETYLSALICYLIC ACID,PROPHYLAXIS OR NON-THERAPEUTIC USE,NERVOUS SYSTEM,325,mg,PRN,ORAL,1,SCREENING 1,-7,2014-02-27,2000-12-10,,-4840,
CDISCPILOT01,CM,01-701-1118,3,1,ASPIRIN,ACETYLSALICYLIC ACID,PROPHYLAXIS OR NON-THERAPEUTIC USE,NERVOUS SYSTEM,325,mg,PRN,ORAL,2,SCREENING 2,-1,2014-03-10,2000-12-10,,-4840,
CDISCPILOT01,CM,01-701-1118,5,1,ASPIRIN,ACETYLSALICYLIC ACID,PROPHYLAXIS OR NON-THERAPEUTIC USE,NERVOUS SYSTEM,325,mg,PRN,ORAL,3,BASELINE,1,2014-03-12,2000-12-10,,-4840,
CDISCPILOT01,CM,01-701-1118,7,1,ASPIRIN,ACETYLSALICYLIC ACID,PROPHYLAXIS OR NON-THERAPEUTIC USE,NERVOUS SYSTEM,325,mg,PRN,ORAL,4,WEEK 2,14,2014-03-26,2000-12-10,,-4840,
CDISCPILOT01,CM,01-701-1118,9,1,ASPIRIN,ACETYLSALICYLIC ACID,PROPHYLAXIS OR NON-THERAPEUTIC USE,NERVOUS SYSTEM,325,mg,PRN,ORAL,5,WEEK 4,28,2014-04-09,2000-12-10,,-4840,
CDISCPILOT01,CM,01-701-1118,11,1,ASPIRIN,ACETYLSALICYLIC ACID,PROPHYLAXIS OR NON-THERAPEUTIC USE,NERVOUS SYSTEM,325,mg,PRN,ORAL,6,AMBUL ECG REMOVAL,30,2014-04-11,2000-12-10,,-4840,
CDISCPILOT01,CM,01-701-1118,13,1,ASPIRIN,ACETYLSALICYLIC ACID,PROPHYLAXIS OR NON-THERAPEUTIC USE,NERVOUS SYSTEM,325,mg,PRN,ORAL,7,WEEK 6,42,2014-04-23,2000-12-10,,-4840,
CDISCPILOT01,CM,01-701-1118,15,1,ASPIRIN,ACETYLSALICYLIC ACID,PROPHYLAXIS OR NON-THERAPEUTIC USE,NERVOUS SYSTEM,325,mg,PRN,ORAL,8,WEEK 8,56,2014-05-08,2000-12-10,,-4840,
CDISCPILOT01,CM,01-701-1118,17,1,ASPIRIN,ACETYLSALICYLIC ACID,PROPHYLAXIS OR NON-THERAPEUTIC USE,NERVOUS SYSTEM,325,mg,PRN,ORAL,9,WEEK 12,84,2014-06-05,2000-12-10,,-4840,
CDISCPILOT01,CM,01-701-1118,19,1,ASPIRIN,ACETYLSALICYLIC ACID,PROPHYLAXIS OR NON-THERAPEUTIC USE,NERVOUS SYSTEM,325,mg,PRN,ORAL,10,WEEK 16,112,2014-07-02,2000-12-10,,-4840,
CDISCPILOT01,CM,01-701-1118,21,1,ASPIRIN,ACETYLSALICYLIC ACID,PROPHYLAXIS OR NON-THERAPEUTIC USE,NERVOUS SYSTEM,325,mg,PRN,ORAL,11,WEEK 20,140,2014-07-30,2000-12-10,,-4840,
CDISCPILOT01,CM,01-701-1118,23,1,ASPIRIN,ACETYLSALICYLIC ACID,PROPHYLAXIS OR NON-THERAPEUTIC USE,NERVOUS SYSTEM,325,mg,PRN,ORAL,12,WEEK 24,168,2014-08-27,2000-12-10,,-4840,
CDISCPILOT01,CM,01-701-1118,25,1,ASPIRIN,ACETYLSALICYLIC ACID,PROPHYLAXIS OR NON-THERAPEUTIC USE,NERVOUS SYSTEM,325,mg,PRN,ORAL,13,WEEK 26,182,2014-09-09,2000-12-10,,-4840,
CDISCPILOT01,CM,01-701-1118,2,2,MULTIVITAMIN,UNCODED,PROPHYLAXIS OR NON-THERAPEUTIC USE,UNCODED,1,TABLET,QD,ORAL,1,SCREENING 1,-7,2014-02-27,2012-01-21,,-781,
CDISCPILOT01,CM,01-701-1118,4,2,MULTIVITAMIN,UNCODED,PROPHYLAXIS OR NON-THERAPEUTIC USE,UNCODED,1,TABLET,QD,ORAL,2,SCREENING 2,-1,2014-03-10,2012-01-21,,-781,
CDISCPILOT01,CM,01-701-1118,6,2,MULTIVITAMIN,UNCODED,PROPHYLAXIS OR NON-THERAPEUTIC USE,UNCODED,1,TABLET,QD,ORAL,3,BASELINE,1,2014-03-12,2012-01-21,,-781,
CDISCPILOT01,CM,01-701-1118,8,2,MULTIVITAMIN,UNCODED,PROPHYLAXIS OR NON-THERAPEUTIC USE,UNCODED,1,TABLET,QD,ORAL,4,WEEK 2,14,2014-03-26,2012-01-21,,-781,
CDISCPILOT01,CM,01-701-1118,10,2,MULTIVITAMIN,UNCODED,PROPHYLAXIS OR NON-THERAPEUTIC USE,UNCODED,1,TABLET,QD,ORAL,5,WEEK 4,28,2014-04-09,2012-01-21,,-781,
CDISCPILOT01,CM,01-701-1118,12,2,MULTIVITAMIN,UNCODED,PROPHYLAXIS OR NON-THERAPEUTIC USE,UNCODED,1,TABLET,QD,ORAL,6,AMBUL ECG REMOVAL,30,2014-04-11,2012-01-21,,-781,
CDISCPILOT01,CM,01-701-1118,14,2,MULTIVITAMIN,UNCODED,PROPHYLAXIS OR NON-THERAPEUTIC USE,UNCODED,1,TABLET,QD,ORAL,7,WEEK 6,42,2014-04-23,2012-01-21,,-781,
CDISCPILOT01,CM,01-701-1118,16,2,MULTIVITAMIN,UNCODED,PROPHYLAXIS OR NON-THERAPEUTIC USE,UNCODED,1,TABLET,QD,ORAL,8,WEEK 8,56,2014-05-08,2012-01-21,,-781,
CDISCPILOT01,CM,01-701-1118,18,2,MULTIVITAMIN,UNCODED,PROPHYLAXIS OR NON-THERAPEUTIC USE,UNCODED,1,TABLET,QD,ORAL,9,WEEK 12,84,2014-06-05,2012-01-21,,-781,
CDISCPILOT01,CM,01-701-1118,20,2,MULTIVITAMIN,UNCODED,PROPHYLAXIS OR NON-THERAPEUTIC USE,UNCODED,1,TABLET,QD,ORAL,10,WEEK 16,112,2014-07-02,2012-01-21,,-781,
CDISCPILOT01,CM,01-701-1118,22,2,MULTIVITAMIN,UNCODED,PROPHYLAXIS OR NON-THERAPEUTIC USE,UNCODED,1,TABLET,QD,ORAL,11,WEEK 20,140,2014-07-30,2012-01-21,,-781,
CDISCPILOT01,CM,01-701-1118,24,2,MULTIVITAMIN,UNCODED,PROPHYLAXIS OR NON-THERAPEUTIC USE,UNCODED,1,TABLET,QD,ORAL,12,WEEK 24,168,2014-08-27,2012-01-21,,-781,
CDISCPILOT01,CM,01-701-1118,26,2,MULTIVITAMIN,UNCODED,PROPHYLAXIS OR NON-THERAPEUTIC USE,UNCODED,1,TABLET,QD,ORAL,13,WEEK 26,182,2014-09-09,2012-01-21,,-781,
CDISCPILOT01,CM,01-701-1130,39,6,ANTIHISTAMINES FOR SYSTEMIC USE,UNCODED,,UNCODED,2,TABLET,PRN,ORAL,9,WEEK 12,84,2014-05-16,2014-05-09,2014-05-09,84,84
CDISCPILOT01,CM,01-701-1130,1,1,CALCIUM,CALCIUM,PROPHYLAXIS OR NON-THERAPEUTIC USE,ALIMENTARY TRACT AND METABOLISM,1,TABLET,QD,ORAL,1,SCREENING 1,-7,2014-02-09,2002,,,
CDISCPILOT01,CM,01-701-1130,5,1,CALCIUM,CALCIUM,PROPHYLAXIS OR NON-THERAPEUTIC USE,ALIMENTARY TRACT AND METABOLISM,1,TABLET,QD,ORAL,2,SCREENING 2,-1,2014-02-13,2002,,,
CDISCPILOT01,CM,01-701-1130,9,1,CALCIUM,CALCIUM,PROPHYLAXIS OR NON-THERAPEUTIC USE,ALIMENTARY TRACT AND METABOLISM,1,TABLET,QD,ORAL,3,BASELINE,1,2014-02-15,2002,,,
CDISCPILOT01,CM,01-701-1130,13,1,CALCIUM,CALCIUM,PROPHYLAXIS OR NON-THERAPEUTIC USE,ALIMENTARY TRACT AND METABOLISM,1,TABLET,QD,ORAL,4,WEEK 2,14,2014-03-01,2002,,,
CDISCPILOT01,CM,01-701-1130,17,1,CALCIUM,CALCIUM,PROPHYLAXIS OR NON-THERAPEUTIC USE,ALIMENTARY TRACT AND METABOLISM,1,TABLET,QD,ORAL,5,WEEK 4,28,2014-03-15,2002,,,
CDISCPILOT01,CM,01-701-1130,22,1,CALCIUM,CALCIUM,PROPHYLAXIS OR NON-THERAPEUTIC USE,ALIMENTARY TRACT AND METABOLISM,1,TABLET,QD,ORAL,6,AMBUL ECG REMOVAL,30,2014-03-17,2002,,,
CDISCPILOT01,CM,01-701-1130,27,1,CALCIUM,CALCIUM,PROPHYLAXIS OR NON-THERAPEUTIC USE,ALIMENTARY TRACT AND METABOLISM,1,TABLET,QD,ORAL,7,WEEK 6,42,2014-03-29,2002,,,
CDISCPILOT01,CM,01-701-1130,31,1,CALCIUM,CALCIUM,PROPHYLAXIS OR NON-THERAPEUTIC USE,ALIMENTARY TRACT AND METABOLISM,1,TABLET,QD,ORAL,8,WEEK 8,56,2014-04-12,2002,,,
CDISCPILOT01,CM,01-701-1130,35,1,CALCIUM,CALCIUM,PROPHYLAXIS OR NON-THERAPEUTIC USE,ALIMENTARY TRACT AND METABOLISM,1,TABLET,QD,ORAL,9,WEEK 12,84,2014-05-16,2002,,,
CDISCPILOT01,CM,01-701-1130,40,1,CALCIUM,CALCIUM,PROPHYLAXIS OR NON-THERAPEUTIC USE,ALIMENTARY TRACT AND METABOLISM,1,TABLET,QD,ORAL,10,WEEK 16,112,2014-06-07,2002,,,
CDISCPILOT01,CM,01-701-1130,44,1,CALCIUM,CALCIUM,PROPHYLAXIS OR NON-THERAPEUTIC USE,ALIMENTARY TRACT AND METABOLISM,1,TABLET,QD,ORAL,11,WEEK 20,140,2014-07-02,2002,,,
CDISCPILOT01,CM,01-701-1130,48,1,CALCIUM,CALCIUM,PROPHYLAXIS OR NON-THERAPEUTIC USE,ALIMENTARY TRACT AND METABOLISM,1,TABLET,QD,ORAL,12,WEEK 24,168,2014-08-02,2002,,,
CDISCPILOT01,CM,01-701-1130,52,1,CALCIUM,CALCIUM,PROPHYLAXIS OR NON-THERAPEUTIC USE,ALIMENTARY TRACT AND METABOLISM,1,TABLET,QD,ORAL,13,WEEK 26,182,2014-08-16,2002,,,
CDISCPILOT01,CM,01-701-1130,4,2,EUCERIN CREME,UNCODED,,UNCODED,1,VIAL,TID,TOPICAL,1,SCREENING 1,-7,2014-02-09,2013-09,,,
CDISCPILOT01,CM,01-701-1130,8,2,EUCERIN CREME,UNCODED,,UNCODED,1,VIAL,TID,TOPICAL,2,SCREENING 2,-1,2014-02-13,2013-09,,,
CDISCPILOT01,CM,01-701-1130,12,2,EUCERIN CREME,UNCODED,,UNCODED,1,VIAL,TID,TOPICAL,3,BASELINE,1,2014-02-15,2013-09,,,
CDISCPILOT01,CM,01-701-1130,16,2,EUCERIN CREME,UNCODED,,UNCODED,1,VIAL,TID,TOPICAL,4,WEEK 2,14,2014-03-01,2013-09,,,
CDISCPILOT01,CM,01-701-1130,20,2,EUCERIN CREME,UNCODED,,UNCODED,1,VIAL,TID,TOPICAL,5,WEEK 4,28,2014-03-15,2013-09,,,
CDISCPILOT01,CM,01-701-1130,25,2,EUCERIN CREME,UNCODED,,UNCODED,1,VIAL,TID,TOPICAL,6,AMBUL ECG REMOVAL,30,2014-03-17,2013-09,,,
CDISCPILOT01,CM,01-701-1130,30,2,EUCERIN CREME,UNCODED,,UNCODED,1,VIAL,TID,TOPICAL,7,WEEK 6,42,2014-03-29,2013-09,,,
CDISCPILOT01,CM,01-701-1130,34,2,EUCERIN CREME,UNCODED,,UNCODED,1,VIAL,TID,TOPICAL,8,WEEK 8,56,2014-04-12,2013-09,,,
CDISCPILOT01,CM,01-701-1130,38,2,EUCERIN CREME,UNCODED,,UNCODED,1,VIAL,TID,TOPICAL,9,WEEK 12,84,2014-05-16,2013-09,,,
CDISCPILOT01,CM,01-701-1130,43,2,EUCERIN CREME,UNCODED,,UNCODED,1,VIAL,TID,TOPICAL,10,WEEK 16,112,2014-06-07,2013-09,,,
CDISCPILOT01,CM,01-701-1130,47,2,EUCERIN CREME,UNCODED,,UNCODED,1,VIAL,TID,TOPICAL,11,WEEK 20,140,2014-07-02,2013-09,,,
CDISCPILOT01,CM,01-701-1130,51,2,EUCERIN CREME,UNCODED,,UNCODED,1,VIAL,TID,TOPICAL,12,WEEK 24,168,2014-08-02,2013-09,,,
CDISCPILOT01,CM,01-701-1130,55,2,EUCERIN CREME,UNCODED,,UNCODED,1,VIAL,TID,TOPICAL,13,WEEK 26,182,2014-08-16,2013-09,,,
CDISCPILOT01,CM,01-701-1130,2,3,MULTIVITAMINS,UNCODED,PROPHYLAXIS OR NON-THERAPEUTIC USE,UNCODED,4,TABLET,QD,ORAL,1,SCREENING 1,-7,2014-02-09,2002,,,
CDISCPILOT01,CM,01-701-1130,6,3,MULTIVITAMINS,UNCODED,PROPHYLAXIS OR NON-THERAPEUTIC USE,UNCODED,4,TABLET,QD,ORAL,2,SCREENING 2,-1,2014-02-13,2002,,,
CDISCPILOT01,CM,01-701-1130,10,3,MULTIVITAMINS,UNCODED,PROPHYLAXIS OR NON-THERAPEUTIC USE,UNCODED,4,TABLET,QD,ORAL,3,BASELINE,1,2014-02-15,2002,,,
CDISCPILOT01,CM,01-701-1130,14,3,MULTIVITAMINS,UNCODED,PROPHYLAXIS OR NON-THERAPEUTIC USE,UNCODED,4,TABLET,QD,ORAL,4,WEEK 2,14,2014-03-01,2002,,,
CDISCPILOT01,CM,01-701-1130,18,3,MULTIVITAMINS,UNCODED,PROPHYLAXIS OR NON-THERAPEUTIC USE,UNCODED,4,TABLET,QD,ORAL,5,WEEK 4,28,2014-03-15,2002,,,
CDISCPILOT01,CM,01-701-1130,23,3,MULTIVITAMINS,UNCODED,PROPHYLAXIS OR NON-THERAPEUTIC USE,UNCODED,4,TABLET,QD,ORAL,6,AMBUL ECG REMOVAL,30,2014-03-17,2002,,,
CDISCPILOT01,CM,01-701-1130,28,3,MULTIVITAMINS,UNCODED,PROPHYLAXIS OR NON-THERAPEUTIC USE,UNCODED,4,TABLET,QD,ORAL,7,WEEK 6,42,2014-03-29,2002,,,
CDISCPILOT01,CM,01-701-1130,32,3,MULTIVITAMINS,UNCODED,PROPHYLAXIS OR NON-THERAPEUTIC USE,UNCODED,4,TABLET,QD,ORAL,8,WEEK 8,56,2014-04-12,2002,,,
CDISCPILOT01,CM,01-701-1130,36,3,MULTIVITAMINS,UNCODED,PROPHYLAXIS OR NON-THERAPEUTIC USE,UNCODED,4,TABLET,QD,ORAL,9,WEEK 12,84,2014-05-16,2002,,,
CDISCPILOT01,CM,01-701-1130,41,3,MULTIVITAMINS,UNCODED,PROPHYLAXIS OR NON-THERAPEUTIC USE,UNCODED,4,TABLET,QD,ORAL,10,WEEK 16,112,2014-06-07,2002,,,
CDISCPILOT01,CM,01-701-1130,45,3,MULTIVITAMINS,UNCODED,PROPHYLAXIS OR NON-THERAPEUTIC USE,UNCODED,4,TABLET,QD,ORAL,11,WEEK 20,140,2014-07-02,2002,,,
CDISCPILOT01,CM,01-701-1130,49,3,MULTIVITAMINS,UNCODED,PROPHYLAXIS OR NON-THERAPEUTIC USE,UNCODED,4,TABLET,QD,ORAL,12,WEEK 24,168,2014-08-02,2002,,,
CDISCPILOT01,CM,01-701-1130,53,3,MULTIVITAMINS,UNCODED,PROPHYLAXIS OR NON-THERAPEUTIC USE,UNCODED,4,TABLET,QD,ORAL,13,WEEK 26,182,2014-08-16,2002,,,
CDISCPILOT01,CM,01-701-1130,3,4,POTASSIUM,UNCODED,PROPHYLAXIS OR NON-THERAPEUTIC USE,UNCODED,1,TABLET,QD,ORAL,1,SCREENING 1,-7,2014-02-09,2002,,,
CDISCPILOT01,CM,01-701-1130,7,4,POTASSIUM,UNCODED,PROPHYLAXIS OR NON-THERAPEUTIC USE,UNCODED,1,TABLET,QD,ORAL,2,SCREENING 2,-1,2014-02-13,2002,,,
CDISCPILOT01,CM,01-701-1130,11,4,POTASSIUM,UNCODED,PROPHYLAXIS OR NON-THERAPEUTIC USE,UNCODED,1,TABLET,QD,ORAL,3,BASELINE,1,2014-02-15,2002,,,
CDISCPILOT01,CM,01-701-1130,15,4,POTASSIUM,UNCODED,PROPHYLAXIS OR NON-THERAPEUTIC USE,UNCODED,1,TABLET,QD,ORAL,4,WEEK 2,14,2014-03-01,2002,,,
CDISCPILOT01,CM,01-701-1130,19,4,POTASSIUM,UNCODED,PROPHYLAXIS OR NON-THERAPEUTIC USE,UNCODED,1,TABLET,QD,ORAL,5,WEEK 4,28,2014-03-15,2002,,,
CDISCPILOT01,CM,01-701-1130,24,4,POTASSIUM,UNCODED,PROPHYLAXIS OR NON-THERAPEUTIC USE,UNCODED,1,TABLET,QD,ORAL,6,AMBUL ECG REMOVAL,30,2014-03-17,2002,,,
CDISCPILOT01,CM,01-701-1130,29,4,POTASSIUM,UNCODED,PROPHYLAXIS OR NON-THERAPEUTIC USE,UNCODED,1,TABLET,QD,ORAL,7,WEEK 6,42,2014-03-29,2002,,,
CDISCPILOT01,CM,01-701-1130,33,4,POTASSIUM,UNCODED,PROPHYLAXIS OR NON-THERAPEUTIC USE,UNCODED,1,TABLET,QD,ORAL,8,WEEK 8,56,2014-04-12,2002,,,
CDISCPILOT01,CM,01-701-1130,37,4,POTASSIUM,UNCODED,PROPHYLAXIS OR NON-THERAPEUTIC USE,UNCODED,1,TABLET,QD,ORAL,9,WEEK 12,84,2014-05-16,2002,,,
CDISCPILOT01,CM,01-701-1130,42,4,POTASSIUM,UNCODED,PROPHYLAXIS OR NON-THERAPEUTIC USE,UNCODED,1,TABLET,QD,ORAL,10,WEEK 16,112,2014-06-07,2002,,,
CDISCPILOT01,CM,01-701-1130,46,4,POTASSIUM,UNCODED,PROPHYLAXIS OR NON-THERAPEUTIC USE,UNCODED,1,TABLET,QD,ORAL,11,WEEK 20,140,2014-07-02,2002,,,
CDISCPILOT01,CM,01-701-1130,50,4,POTASSIUM,UNCODED,PROPHYLAXIS OR NON-THERAPEUTIC USE,UNCODED,1,TABLET,QD,ORAL,12,WEEK 24,168,2014-08-02,2002,,,
CDISCPILOT01,CM,01-701-1130,54,4,POTASSIUM,UNCODED,PROPHYLAXIS OR NON-THERAPEUTIC USE,UNCODED,1,TABLET,QD,ORAL,13,WEEK 26,182,2014-08-16,2002,,,
CDISCPILOT01,CM,01-701-1130,21,5,SULFAMETHOXAZOLE,UNCODED,,UNCODED,1,TABLET,BID,ORAL,5,WEEK 4,28,2014-03-15,2014-03-10,2014-03-16,24,30
CDISCPILOT01,CM,01-701-1130,26,5,SULFAMETHOXAZOLE,UNCODED,,UNCODED,1,TABLET,BID,ORAL,6,AMBUL ECG REMOVAL,30,2014-03-17,2014-03-10,2014-03-16,24,30
CDISCPILOT01,CM,01-701-1133,11,2,HYDROCORTISONE,HYDROCORTISONE,,"SYSTEMIC HORMONAL PREPARATIONS, EXCL.",1,VIAL,PRN,TOPICAL,10,WEEK 16,112,2013-02-18,2013-01-23,,88,
CDISCPILOT01,CM,01-701-1133,13,2,HYDROCORTISONE,HYDROCORTISONE,,"SYSTEMIC HORMONAL PREPARATIONS, EXCL.",1,VIAL,PRN,TOPICAL,11,WEEK 20,140,2013-03-18,2013-01-23,,88,
CDISCPILOT01,CM,01-701-1133,15,2,HYDROCORTISONE,HYDROCORTISONE,,"SYSTEMIC HORMONAL PREPARATIONS, EXCL.",1,VIAL,PRN,TOPICAL,12,WEEK 24,168,2013-04-18,2013-01-23,,88,
CDISCPILOT01,CM,01-701-1133,17,2,HYDROCORTISONE,HYDROCORTISONE,,"SYSTEMIC HORMONAL PREPARATIONS, EXCL.",1,VIAL,PRN,TOPICAL,13,WEEK 26,182,2013-04-29,2013-01-23,,88,
CDISCPILOT01,CM,01-701-1133,1,1,MULTIVITAMIN,UNCODED,PROPHYLAXIS OR NON-THERAPEUTIC USE,UNCODED,1,TABLET,QD,ORAL,1,SCREENING 1,-7,2012-10-23,2006,,,
CDISCPILOT01,CM,01-701-1133,2,1,MULTIVITAMIN,UNCODED,PROPHYLAXIS OR NON-THERAPEUTIC USE,UNCODED,1,TABLET,QD,ORAL,2,SCREENING 2,-1,2012-10-26,2006,,,
CDISCPILOT01,CM,01-701-1133,3,1,MULTIVITAMIN,UNCODED,PROPHYLAXIS OR NON-THERAPEUTIC USE,UNCODED,1,TABLET,QD,ORAL,3,BASELINE,1,2012-10-28,2006,,,
CDISCPILOT01,CM,01-701-1133,4,1,MULTIVITAMIN,UNCODED,PROPHYLAXIS OR NON-THERAPEUTIC USE,UNCODED,1,TABLET,QD,ORAL,4,WEEK 2,14,2012-11-12,2006,,,
CDISCPILOT01,CM,01-701-1133,5,1,MULTIVITAMIN,UNCODED,PROPHYLAXIS OR NON-THERAPEUTIC USE,UNCODED,1,TABLET,QD,ORAL,5,WEEK 4,28,2012-11-26,2006,,,
CDISCPILOT01,CM,01-701-1133,6,1,MULTIVITAMIN,UNCODED,PROPHYLAXIS OR NON-THERAPEUTIC USE,UNCODED,1,TABLET,QD,ORAL,6,AMBUL ECG REMOVAL,30,2012-11-28,2006,,,
CDISCPILOT01,CM,01-701-1133,7,1,MULTIVITAMIN,UNCODED,PROPHYLAXIS OR NON-THERAPEUTIC USE,UNCODED,1,TABLET,QD,ORAL,7,WEEK 6,42,2012-12-11,2006,,,
CDISCPILOT01,CM,01-701-1133,8,1,MULTIVITAMIN,UNCODED,PROPHYLAXIS OR NON-THERAPEUTIC USE,UNCODED,1,TABLET,QD,ORAL,8,WEEK 8,56,2012-12-24,2006,,,
CDISCPILOT01,CM,01-701-1133,9,1,MULTIVITAMIN,UNCODED,PROPHYLAXIS OR NON-THERAPEUTIC USE,UNCODED,1,TABLET,QD,ORAL,9,WEEK 12,84,2013-01-22,2006,,,
CDISCPILOT01,CM,01-701-1133,10,1,MULTIVITAMIN,UNCODED,PROPHYLAXIS OR NON-THERAPEUTIC USE,UNCODED,1,TABLET,QD,ORAL,10,WEEK 16,112,2013-02-18,2006,,,
CDISCPILOT01,CM,01-701-1133,12,1,MULTIVITAMIN,UNCODED,PROPHYLAXIS OR NON-THERAPEUTIC USE,UNCODED,1,TABLET,QD,ORAL,11,WEEK 20,140,2013-03-18,2006,,,
CDISCPILOT01,CM,01-701-1133,14,1,MULTIVITAMIN,UNCODED,PROPHYLAXIS OR NON-THERAPEUTIC USE,UNCODED,1,TABLET,QD,ORAL,12,WEEK 24,168,2013-04-18,2006,,,
CDISCPILOT01,CM,01-701-1133,16,1,MULTIVITAMIN,UNCODED,PROPHYLAXIS OR NON-THERAPEUTIC USE,UNCODED,1,TABLET,QD,ORAL,13,WEEK 26,182,2013-04-29,2006,,,
CDISCPILOT01,CM,01-701-1146,29,8,PAROXETINE,UNCODED,,UNCODED,2,TABLET,TID,ORAL,4,WEEK 2,14,2013-06-03,2013-05-21,2013-05-22,2,3
CDISCPILOT01,CM,01-701-1146,5,1,BECONASE,UNCODED,,UNCODED,2,PUFF,PRN,NASAL,1,SCREENING 1,-7,2013-05-07,2008,,,
CDISCPILOT01,CM,01-701-1146,12,1,BECONASE,UNCODED,,UNCODED,2,PUFF,PRN,NASAL,2,SCREENING 2,-1,2013-05-18,2008,,,
CDISCPILOT01,CM,01-701-1146,19,1,BECONASE,UNCODED,,UNCODED,2,PUFF,PRN,NASAL,3,BASELINE,1,2013-05-20,2008,,,
CDISCPILOT01,CM,01-701-1146,26,1,BECONASE,UNCODED,,UNCODED,2,PUFF,PRN,NASAL,4,WEEK 2,14,2013-06-03,2008,,,
CDISCPILOT01,CM,01-701-1146,34,1,BECONASE,UNCODED,,UNCODED,2,PUFF,PRN,NASAL,5,WEEK 4,28,2013-06-16,2008,,,
CDISCPILOT01,CM,01-701-1146,42,1,BECONASE,UNCODED,,UNCODED,2,PUFF,PRN,NASAL,6,AMBUL ECG REMOVAL,30,2013-06-18,2008,,,
CDISCPILOT01,CM,01-701-1146,50,1,BECONASE,UNCODED,,UNCODED,2,PUFF,PRN,NASAL,7,WEEK 6,42,2013-06-30,2008,,,
CDISCPILOT01,CM,01-701-1146,58,1,BECONASE,UNCODED,,UNCODED,2,PUFF,PRN,NASAL,101,AE FOLLOW-UP,,2013-07-15,2008,,,
CDISCPILOT01,CM,01-701-1146,6,2,DOCUSATE,UNCODED,,UNCODED,2,TABLET,QD,ORAL,1,SCREENING 1,-7,2013-05-07,2008,,,
CDISCPILOT01,CM,01-701-1146,13,2,DOCUSATE,UNCODED,,UNCODED,2,TABLET,QD,ORAL,2,SCREENING 2,-1,2013-05-18,2008,,,
CDISCPILOT01,CM,01-701-1146,20,2,DOCUSATE,UNCODED,,UNCODED,2,TABLET,QD,ORAL,3,BASELINE,1,2013-05-20,2008,,,
CDISCPILOT01,CM,01-701-1146,27,2,DOCUSATE,UNCODED,,UNCODED,2,TABLET,QD,ORAL,4,WEEK 2,14,2013-06-03,2008,,,
CDISCPILOT01,CM,01-701-1146,35,2,DOCUSATE,UNCODED,,UNCODED,2,TABLET,QD,ORAL,5,WEEK 4,28,2013-06-16,2008,,,
CDISCPILOT01,CM,01-701-1146,43,2,DOCUSATE,UNCODED,,UNCODED,2,TABLET,QD,ORAL,6,AMBUL ECG REMOVAL,30,2013-06-18,2008,,,
CDISCPILOT01,CM,01-701-1146,51,2,DOCUSATE,UNCODED,,UNCODED,2,TABLET,QD,ORAL,7,WEEK 6,42,2013-06-30,2008,,,
CDISCPILOT01,CM,01-701-1146,59,2,DOCUSATE,UNCODED,,UNCODED,2,TABLET,QD,ORAL,101,AE FOLLOW-UP,,2013-07-15,2008,,,
CDISCPILOT01,CM,01-701-1146,37,9,"HYDROCORTISONE, TOPICAL",UNCODED,,UNCODED,1,VIAL,PRN,TOPICAL,5,WEEK 4,28,2013-06-16,2013-06-12,,24,
CDISCPILOT01,CM,01-701-1146,45,9,"HYDROCORTISONE, TOPICAL",UNCODED,,UNCODED,1,VIAL,PRN,TOPICAL,6,AMBUL ECG REMOVAL,30,2013-06-18,2013-06-12,,24,
CDISCPILOT01,CM,01-701-1146,53,9,"HYDROCORTISONE, TOPICAL",UNCODED,,UNCODED,1,VIAL,PRN,TOPICAL,7,WEEK 6,42,2013-06-30,2013-06-12,,24,
CDISCPILOT01,CM,01-701-1146,61,9,"HYDROCORTISONE, TOPICAL",UNCODED,,UNCODED,1,VIAL,PRN,TOPICAL,101,AE FOLLOW-UP,,2013-07-15,2013-06-12,,24,
CDISCPILOT01,CM,01-701-1146,7,3,MINERALS NOS,UNCODED,,UNCODED,15,TABLET,PRN,ORAL,1,SCREENING 1,-7,2013-05-07,2012,,,
CDISCPILOT01,CM,01-701-1146,14,3,MINERALS NOS,UNCODED,,UNCODED,15,TABLET,PRN,ORAL,2,SCREENING 2,-1,2013-05-18,2012,,,
CDISCPILOT01,CM,01-701-1146,21,3,MINERALS NOS,UNCODED,,UNCODED,15,TABLET,PRN,ORAL,3,BASELINE,1,2013-05-20,2012,,,
CDISCPILOT01,CM,01-701-1146,28,3,MINERALS NOS,UNCODED,,UNCODED,15,TABLET,PRN,ORAL,4,WEEK 2,14,2013-06-03,2012,,,
CDISCPILOT01,CM,01-701-1146,36,3,MINERALS NOS,UNCODED,,UNCODED,15,TABLET,PRN,ORAL,5,WEEK 4,28,2013-06-16,2012,,,
CDISCPILOT01,CM,01-701-1146,44,3,MINERALS NOS,UNCODED,,UNCODED,15,TABLET,PRN,ORAL,6,AMBUL ECG REMOVAL,30,2013-06-18,2012,,,
CDISCPILOT01,CM,01-701-1146,52,3,MINERALS NOS,UNCODED,,UNCODED,15,TABLET,PRN,ORAL,7,WEEK 6,42,2013-06-30,2012,,,
CDISCPILOT01,CM,01-701-1146,60,3,MINERALS NOS,UNCODED,,UNCODED,15,TABLET,PRN,ORAL,101,AE FOLLOW-UP,,2013-07-15,2012,,,
CDISCPILOT01,CM,01-701-1146,1,4,MOTRIN,UNCODED,,UNCODED,1,TABLET,PRN,ORAL,1,SCREENING 1,-7,2013-05-07,1966,,,
CDISCPILOT01,CM,01-701-1146,8,4,MOTRIN,UNCODED,,UNCODED,1,TABLET,PRN,ORAL,2,SCREENING 2,-1,2013-05-18,1966,,,
CDISCPILOT01,CM,01-701-1146,15,4,MOTRIN,UNCODED,,UNCODED,1,TABLET,PRN,ORAL,3,BASELINE,1,2013-05-20,1966,,,
CDISCPILOT01,CM,01-701-1146,22,4,MOTRIN,UNCODED,,UNCODED,1,TABLET,PRN,ORAL,4,WEEK 2,14,2013-06-03,1966,,,
CDISCPILOT01,CM,01-701-1146,30,4,MOTRIN,UNCODED,,UNCODED,1,TABLET,PRN,ORAL,5,WEEK 4,28,2013-06-16,1966,,,
CDISCPILOT01,CM,01-701-1146,38,4,MOTRIN,UNCODED,,UNCODED,1,TABLET,PRN,ORAL,6,AMBUL ECG REMOVAL,30,2013-06-18,1966,,,
CDISCPILOT01,CM,01-701-1146,46,4,MOTRIN,UNCODED,,UNCODED,1,TABLET,PRN,ORAL,7,WEEK 6,42,2013-06-30,1966,,,
CDISCPILOT01,CM,01-701-1146,54,4,MOTRIN,UNCODED,,UNCODED,1,TABLET,PRN,ORAL,101,AE FOLLOW-UP,,2013-07-15,1966,,,
CDISCPILOT01,CM,01-701-1146,4,5,MULTIVITAMIN,UNCODED,PROPHYLAXIS OR NON-THERAPEUTIC USE,UNCODED,1,TABLET,QD,ORAL,1,SCREENING 1,-7,2013-05-07,2006,,,
CDISCPILOT01,CM,01-701-1146,11,5,MULTIVITAMIN,UNCODED,PROPHYLAXIS OR NON-THERAPEUTIC USE,UNCODED,1,TABLET,QD,ORAL,2,SCREENING 2,-1,2013-05-18,2006,,,
CDISCPILOT01,CM,01-701-1146,18,5,MULTIVITAMIN,UNCODED,PROPHYLAXIS OR NON-THERAPEUTIC USE,UNCODED,1,TABLET,QD,ORAL,3,BASELINE,1,2013-05-20,2006,,,
CDISCPILOT01,CM,01-701-1146,25,5,MULTIVITAMIN,UNCODED,PROPHYLAXIS OR NON-THERAPEUTIC USE,UNCODED,1,TABLET,QD,ORAL,4,WEEK 2,14,2013-06-03,2006,,,
CDISCPILOT01,CM,01-701-1146,33,5,MULTIVITAMIN,UNCODED,PROPHYLAXIS OR NON-THERAPEUTIC USE,UNCODED,1,TABLET,QD,ORAL,5,WEEK 4,28,2013-06-16,2006,,,
CDISCPILOT01,CM,01-701-1146,41,5,MULTIVITAMIN,UNCODED,PROPHYLAXIS OR NON-THERAPEUTIC USE,UNCODED,1,TABLET,QD,ORAL,6,AMBUL ECG REMOVAL,30,2013-06-18,2006,,,
CDISCPILOT01,CM,01-701-1146,49,5,MULTIVITAMIN,UNCODED,PROPHYLAXIS OR NON-THERAPEUTIC USE,UNCODED,1,TABLET,QD,ORAL,7,WEEK 6,42,2013-06-30,2006,,,
CDISCPILOT01,CM,01-701-1146,57,5,MULTIVITAMIN,UNCODED,PROPHYLAXIS OR NON-THERAPEUTIC USE,UNCODED,1,TABLET,QD,ORAL,101,AE FOLLOW-UP,,2013-07-15,2006,,,
CDISCPILOT01,CM,01-701-1146,2,6,PREMARIN,ESTROGENS CONJUGATED,PROPHYLAXIS OR NON-THERAPEUTIC USE,GENITO URINARY SYSTEM AND SEX HORMONES,0.625,mg,QD,ORAL,1,SCREENING 1,-7,2013-05-07,1987,,,
CDISCPILOT01,CM,01-701-1146,9,6,PREMARIN,ESTROGENS CONJUGATED,PROPHYLAXIS OR NON-THERAPEUTIC USE,GENITO URINARY SYSTEM AND SEX HORMONES,0.625,mg,QD,ORAL,2,SCREENING 2,-1,2013-05-18,1987,,,
CDISCPILOT01,CM,01-701-1146,16,6,PREMARIN,ESTROGENS CONJUGATED,PROPHYLAXIS OR NON-THERAPEUTIC USE,GENITO URINARY SYSTEM AND SEX HORMONES,0.625,mg,QD,ORAL,3,BASELINE,1,2013-05-20,1987,,,
CDISCPILOT01,CM,01-701-1146,23,6,PREMARIN,ESTROGENS CONJUGATED,PROPHYLAXIS OR NON-THERAPEUTIC USE,GENITO URINARY SYSTEM AND SEX HORMONES,0.625,mg,QD,ORAL,4,WEEK 2,14,2013-06-03,1987,,,
CDISCPILOT01,CM,01-701-1146,31,6,PREMARIN,ESTROGENS CONJUGATED,PROPHYLAXIS OR NON-THERAPEUTIC USE,GENITO URINARY SYSTEM AND SEX HORMONES,0.625,mg,QD,ORAL,5,WEEK 4,28,2013-06-16,1987,,,
CDISCPILOT01,CM,01-701-1146,39,6,PREMARIN,ESTROGENS CONJUGATED,PROPHYLAXIS OR NON-THERAPEUTIC USE,GENITO URINARY SYSTEM AND SEX HORMONES,0.625,mg,QD,ORAL,6,AMBUL ECG REMOVAL,30,2013-06-18,1987,,,
CDISCPILOT01,CM,01-701-1146,47,6,PREMARIN,ESTROGENS CONJUGATED,PROPHYLAXIS OR NON-THERAPEUTIC USE,GENITO URINARY SYSTEM AND SEX HORMONES,0.625,mg,QD,ORAL,7,WEEK 6,42,2013-06-30,1987,,,
CDISCPILOT01,CM,01-701-1146,55,6,PREMARIN,ESTROGENS CONJUGATED,PROPHYLAXIS OR NON-THERAPEUTIC USE,GENITO URINARY SYSTEM AND SEX HORMONES,0.625,mg,QD,ORAL,101,AE FOLLOW-UP,,2013-07-15,1987,,,
CDISCPILOT01,CM,01-701-1146,3,7,PROVERA,UNCODED,PROPHYLAXIS OR NON-THERAPEUTIC USE,UNCODED,2.5,ug,QD,ORAL,1,SCREENING 1,-7,2013-05-07,1987,,,
CDISCPILOT01,CM,01-701-1146,10,7,PROVERA,UNCODED,PROPHYLAXIS OR NON-THERAPEUTIC USE,UNCODED,2.5,ug,QD,ORAL,2,SCREENING 2,-1,2013-05-18,1987,,,
CDISCPILOT01,CM,01-701-1146,17,7,PROVERA,UNCODED,PROPHYLAXIS OR NON-THERAPEUTIC USE,UNCODED,2.5,ug,QD,ORAL,3,BASELINE,1,2013-05-20,1987,,,
CDISCPILOT01,CM,01-701-1146,24,7,PROVERA,UNCODED,PROPHYLAXIS OR NON-THERAPEUTIC USE,UNCODED,2.5,ug,QD,ORAL,4,WEEK 2,14,2013-06-03,1987,,,
CDISCPILOT01,CM,01-701-1146,32,7,PROVERA,UNCODED,PROPHYLAXIS OR NON-THERAPEUTIC USE,UNCODED,2.5,ug,QD,ORAL,5,WEEK 4,28,2013-06-16,1987,,,
CDISCPILOT01,CM,01-701-1146,40,7,PROVERA,UNCODED,PROPHYLAXIS OR NON-THERAPEUTIC USE,UNCODED,2.5,ug,QD,ORAL,6,AMBUL ECG REMOVAL,30,2013-06-18,1987,,,
CDISCPILOT01,CM,01-701-1146,48,7,PROVERA,UNCODED,PROPHYLAXIS OR NON-THERAPEUTIC USE,UNCODED,2.5,ug,QD,ORAL,7,WEEK 6,42,2013-06-30,1987,,,
CDISCPILOT01,CM,01-701-1146,56,7,PROVERA,UNCODED,PROPHYLAXIS OR NON-THERAPEUTIC USE,UNCODED,2.5,ug,QD,ORAL,101,AE FOLLOW-UP,,2013-07-15,1987,,,
CDISCPILOT01,CM,01-701-1148,31,7,CIMETIDINE,UNCODED,,UNCODED,400,mg,BID,ORAL,12,WEEK 24,168,2014-02-08,2014-01-25,2014-02-08,156,170
CDISCPILOT01,CM,01-701-1148,35,7,CIMETIDINE,UNCODED,,UNCODED,400,mg,BID,ORAL,13,WEEK 26,182,2014-02-20,2014-01-25,2014-02-08,156,170
CDISCPILOT01,CM,01-701-1148,36,8,FLUOROPLEX,UNCODED,,UNCODED,1,VIAL,BID,TOPICAL,13,WEEK 26,182,2014-02-20,2014-02-12,,174,
CDISCPILOT01,CM,01-701-1148,26,5,HYDROCODONE W/APAP,UNCODED,,UNCODED,500,mg,Q4H,ORAL,11,WEEK 20,140,2014-01-10,2013-12-16,2013-12-17,116,117
CDISCPILOT01,CM,01-701-1148,22,4,HYDROCORTISONE,HYDROCORTISONE,,"SYSTEMIC HORMONAL PREPARATIONS, EXCL.",1,VIAL,PRN,TOPICAL,10,WEEK 16,112,2013-12-13,2013-11-18,,88,
CDISCPILOT01,CM,01-701-1148,25,4,HYDROCORTISONE,HYDROCORTISONE,,"SYSTEMIC HORMONAL PREPARATIONS, EXCL.",1,VIAL,PRN,TOPICAL,11,WEEK 20,140,2014-01-10,2013-11-18,,88,
CDISCPILOT01,CM,01-701-1148,30,4,HYDROCORTISONE,HYDROCORTISONE,,"SYSTEMIC HORMONAL PREPARATIONS, EXCL.",1,VIAL,PRN,TOPICAL,12,WEEK 24,168,2014-02-08,2013-11-18,,88,
CDISCPILOT01,CM,01-701-1148,34,4,HYDROCORTISONE,HYDROCORTISONE,,"SYSTEMIC HORMONAL PREPARATIONS, EXCL.",1,VIAL,PRN,TOPICAL,13,WEEK 26,182,2014-02-20,2013-11-18,,88,
CDISCPILOT01,CM,01-701-1148,27,6,NAPROXEN,UNCODED,,UNCODED,375,mg,BID,ORAL,11,WEEK 20,140,2014-01-10,2013-12-16,2013-12-17,116,117
CDISCPILOT01,CM,01-701-1148,19,3,SULFAMETHOXAZOLE,UNCODED,,UNCODED,1,TABLET,BID,ORAL,9,WEEK 12,84,2013-11-17,2013-10-28,2013-11-16,67,86
CDISCPILOT01,CM,01-701-1148,2,1,TUMS,UNCODED,,UNCODED,2,TABLET,PRN,ORAL,1,SCREENING 1,-7,2013-08-14,2011,,,
CDISCPILOT01,CM,01-701-1148,4,1,TUMS,UNCODED,,UNCODED,2,TABLET,PRN,ORAL,2,SCREENING 2,-1,2013-08-21,2011,,,
CDISCPILOT01,CM,01-701-1148,6,1,TUMS,UNCODED,,UNCODED,2,TABLET,PRN,ORAL,3,BASELINE,1,2013-08-23,2011,,,
CDISCPILOT01,CM,01-701-1148,8,1,TUMS,UNCODED,,UNCODED,2,TABLET,PRN,ORAL,4,WEEK 2,14,2013-09-05,2011,,,
CDISCPILOT01,CM,01-701-1148,10,1,TUMS,UNCODED,,UNCODED,2,TABLET,PRN,ORAL,5,WEEK 4,28,2013-09-19,2011,,,
CDISCPILOT01,CM,01-701-1148,12,1,TUMS,UNCODED,,UNCODED,2,TABLET,PRN,ORAL,6,AMBUL ECG REMOVAL,30,2013-09-21,2011,,,
CDISCPILOT01,CM,01-701-1148,14,1,TUMS,UNCODED,,UNCODED,2,TABLET,PRN,ORAL,7,WEEK 6,42,2013-10-03,2011,,,
CDISCPILOT01,CM,01-701-1148,16,1,TUMS,UNCODED,,UNCODED,2,TABLET,PRN,ORAL,8,WEEK 8,56,2013-10-18,2011,,,
CDISCPILOT01,CM,01-701-1148,18,1,TUMS,UNCODED,,UNCODED,2,TABLET,PRN,ORAL,9,WEEK 12,84,2013-11-17,2011,,,
CDISCPILOT01,CM,01-701-1148,21,1,TUMS,UNCODED,,UNCODED,2,TABLET,PRN,ORAL,10,WEEK 16,112,2013-12-13,2011,,,
CDISCPILOT01,CM,01-701-1148,24,1,TUMS,UNCODED,,UNCODED,2,TABLET,PRN,ORAL,11,WEEK 20,140,2014-01-10,2011,,,
CDISCPILOT01,CM,01-701-1148,29,1,TUMS,UNCODED,,UNCODED,2,TABLET,PRN,ORAL,12,WEEK 24,168,2014-02-08,2011,,,
CDISCPILOT01,CM,01-701-1148,33,1,TUMS,UNCODED,,UNCODED,2,TABLET,PRN,ORAL,13,WEEK 26,182,2014-02-20,2011,,,
CDISCPILOT01,CM,01-701-1148,1,2,TYLENOL,UNCODED,,UNCODED,1000,mg,PRN,ORAL,1,SCREENING 1,-7,2013-08-14,2006,,,
CDISCPILOT01,CM,01-701-1148,3,2,TYLENOL,UNCODED,,UNCODED,1000,mg,PRN,ORAL,2,SCREENING 2,-1,2013-08-21,2006,,,
CDISCPILOT01,CM,01-701-1148,5,2,TYLENOL,UNCODED,,UNCODED,1000,mg,PRN,ORAL,3,BASELINE,1,2013-08-23,2006,,,
CDISCPILOT01,CM,01-701-1148,7,2,TYLENOL,UNCODED,,UNCODED,1000,mg,PRN,ORAL,4,WEEK 2,14,2013-09-05,2006,,,
CDISCPILOT01,CM,01-701-1148,9,2,TYLENOL,UNCODED,,UNCODED,1000,mg,PRN,ORAL,5,WEEK 4,28,2013-09-19,2006,,,
CDISCPILOT01,CM,01-701-1148,11,2,TYLENOL,UNCODED,,UNCODED,1000,mg,PRN,ORAL,6,AMBUL ECG REMOVAL,30,2013-09-21,2006,,,
CDISCPILOT01,CM,01-701-1148,13,2,TYLENOL,UNCODED,,UNCODED,1000,mg,PRN,ORAL,7,WEEK 6,42,2013-10-03,2006,,,
CDISCPILOT01,CM,01-701-1148,15,2,TYLENOL,UNCODED,,UNCODED,1000,mg,PRN,ORAL,8,WEEK 8,56,2013-10-18,2006,,,
CDISCPILOT01,CM,01-701-1148,17,2,TYLENOL,UNCODED,,UNCODED,1000,mg,PRN,ORAL,9,WEEK 12,84,2013-11-17,2006,,,
CDISCPILOT01,CM,01-701-1148,20,2,TYLENOL,UNCODED,,UNCODED,1000,mg,PRN,ORAL,10,WEEK 16,112,2013-12-13,2006,,,
CDISCPILOT01,CM,01-701-1148,23,2,TYLENOL,UNCODED,,UNCODED,1000,mg,PRN,ORAL,11,WEEK 20,140,2014-01-10,2006,,,
CDISCPILOT01,CM,01-701-1148,28,2,TYLENOL,UNCODED,,UNCODED,1000,mg,PRN,ORAL,12,WEEK 24,168,2014-02-08,2006,,,
CDISCPILOT01,CM,01-701-1148,32,2,TYLENOL,UNCODED,,UNCODED,1000,mg,PRN,ORAL,13,WEEK 26,182,2014-02-20,2006,,,
CDISCPILOT01,CM,01-701-1153,1,1,TYLENOL,UNCODED,,UNCODED,650,mg,PRN,ORAL,1,SCREENING 1,-7,2013-09-06,2011,,,
CDISCPILOT01,CM,01-701-1153,2,1,TYLENOL,UNCODED,,UNCODED,650,mg,PRN,ORAL,2,SCREENING 2,-1,2013-09-18,2011,,,
CDISCPILOT01,CM,01-701-1153,3,1,TYLENOL,UNCODED,,UNCODED,650,mg,PRN,ORAL,3,BASELINE,1,2013-09-23,2011,,,
CDISCPILOT01,CM,01-701-1153,4,1,TYLENOL,UNCODED,,UNCODED,650,mg,PRN,ORAL,4,WEEK 2,14,2013-10-08,2011,,,
CDISCPILOT01,CM,01-701-1153,5,1,TYLENOL,UNCODED,,UNCODED,650,mg,PRN,ORAL,5,WEEK 4,28,2013-10-19,2011,,,
CDISCPILOT01,CM,01-701-1153,6,1,TYLENOL,UNCODED,,UNCODED,650,mg,PRN,ORAL,6,AMBUL ECG REMOVAL,30,2013-10-28,2011,,,
CDISCPILOT01,CM,01-701-1153,7,1,TYLENOL,UNCODED,,UNCODED,650,mg,PRN,ORAL,7,WEEK 6,42,2013-11-04,2011,,,
CDISCPILOT01,CM,01-701-1153,8,1,TYLENOL,UNCODED,,UNCODED,650,mg,PRN,ORAL,8,WEEK 8,56,2013-11-18,2011,,,
CDISCPILOT01,CM,01-701-1153,9,1,TYLENOL,UNCODED,,UNCODED,650,mg,PRN,ORAL,9,WEEK 12,84,2013-12-16,2011,,,
CDISCPILOT01,CM,01-701-1153,10,1,TYLENOL,UNCODED,,UNCODED,650,mg,PRN,ORAL,10,WEEK 16,112,2014-01-08,2011,,,
CDISCPILOT01,CM,01-701-1153,11,1,TYLENOL,UNCODED,,UNCODED,650,mg,PRN,ORAL,11,WEEK 20,140,2014-02-11,2011,,,
CDISCPILOT01,CM,01-701-1153,12,1,TYLENOL,UNCODED,,UNCODED,650,mg,PRN,ORAL,12,WEEK 24,168,2014-03-11,2011,,,
CDISCPILOT01,CM,01-701-1153,13,1,TYLENOL,UNCODED,,UNCODED,650,mg,PRN,ORAL,13,WEEK 26,182,2014-04-01,2011,,,
CDISCPILOT01,CM,01-701-1180,10,4,ALOES,UNCODED,PROPHYLAXIS OR NON-THERAPEUTIC USE,UNCODED,1,VIAL,QD,TOPICAL,7,WEEK 6,42,2013-03-23,2013-03-19,2013-03-19,36,36
CDISCPILOT01,CM,01-701-1180,6,2,ASPIRIN,ACETYLSALICYLIC ACID,,NERVOUS SYSTEM,2,TABLET,QD,ORAL,5,WEEK 4,28,2013-03-11,2013-03-03,2013-03-09,20,26
CDISCPILOT01,CM,01-701-1180,1,1,CENTRUM,UNCODED,PROPHYLAXIS OR NON-THERAPEUTIC USE,UNCODED,1,TABLET,QD,ORAL,1,SCREENING 1,-7,2013-01-28,2006,,,
CDISCPILOT01,CM,01-701-1180,2,1,CENTRUM,UNCODED,PROPHYLAXIS OR NON-THERAPEUTIC USE,UNCODED,1,TABLET,QD,ORAL,2,SCREENING 2,-1,2013-02-10,2006,,,
CDISCPILOT01,CM,01-701-1180,3,1,CENTRUM,UNCODED,PROPHYLAXIS OR NON-THERAPEUTIC USE,UNCODED,1,TABLET,QD,ORAL,3,BASELINE,1,2013-02-12,2006,,,
CDISCPILOT01,CM,01-701-1180,4,1,CENTRUM,UNCODED,PROPHYLAXIS OR NON-THERAPEUTIC USE,UNCODED,1,TABLET,QD,ORAL,4,WEEK 2,14,2013-02-25,2006,,,
CDISCPILOT01,CM,01-701-1180,5,1,CENTRUM,UNCODED,PROPHYLAXIS OR NON-THERAPEUTIC USE,UNCODED,1,TABLET,QD,ORAL,5,WEEK 4,28,2013-03-11,2006,,,
CDISCPILOT01,CM,01-701-1180,8,1,CENTRUM,UNCODED,PROPHYLAXIS OR NON-THERAPEUTIC USE,UNCODED,1,TABLET,QD,ORAL,6,AMBUL ECG REMOVAL,30,2013-03-13,2006,,,
CDISCPILOT01,CM,01-701-1180,9,1,CENTRUM,UNCODED,PROPHYLAXIS OR NON-THERAPEUTIC USE,UNCODED,1,TABLET,QD,ORAL,7,WEEK 6,42,2013-03-23,2006,,,
CDISCPILOT01,CM,01-701-1180,12,1,CENTRUM,UNCODED,PROPHYLAXIS OR NON-THERAPEUTIC USE,UNCODED,1,TABLET,QD,ORAL,101,AE FOLLOW-UP,,2013-04-07,2006,,,
CDISCPILOT01,CM,01-701-1180,15,6,DHEA,UNCODED,PROPHYLAXIS OR NON-THERAPEUTIC USE,UNCODED,25,mg,QD,ORAL,101,AE FOLLOW-UP,,2013-04-07,2013-03-27,2013-03-30,44,47
CDISCPILOT01,CM,01-701-1180,14,7,HISMANAL,UNCODED,,UNCODED,10,mg,QD,ORAL,101,AE FOLLOW-UP,,2013-04-07,2013-03-25,,42,
CDISCPILOT01,CM,01-701-1180,17,8,MEDROL DOSEPAK,UNCODED,,UNCODED,4,mg,PRN,ORAL,101,AE FOLLOW-UP,,2013-04-07,2013-03-30,,47,
CDISCPILOT01,CM,01-701-1180,16,9,MELATONIN,UNCODED,,UNCODED,2,mg,QD,ORAL,101,AE FOLLOW-UP,,2013-04-07,2013-03-27,2013-03-30,44,47
CDISCPILOT01,CM,01-701-1180,13,10,NEOSPORIN /USA/,UNCODED,,UNCODED,1,VIAL,PRN,TOPICAL,101,AE FOLLOW-UP,,2013-04-07,2013-03-24,2013-03-24,41,41
CDISCPILOT01,CM,01-701-1180,7,3,SUDAFED,UNCODED,,UNCODED,2,TABLET,QD,ORAL,5,WEEK 4,28,2013-03-11,2013-03-06,2013-03-07,23,24
CDISCPILOT01,CM,01-701-1180,11,5,WESTCORT,UNCODED,PROPHYLAXIS OR NON-THERAPEUTIC USE,UNCODED,1,VIAL,BID,TOPICAL,7,WEEK 6,42,2013-03-23,2013-03-19,2013-03-21,36,38
CDISCPILOT01,CM,01-701-1181,1,1,CALCIUM MAGNESIUM,UNCODED,PROPHYLAXIS OR NON-THERAPEUTIC USE,UNCODED,1,TABLET,QD,ORAL,1,SCREENING 1,-7,2013-11-26,1985,,,
CDISCPILOT01,CM,01-701-1181,6,1,CALCIUM MAGNESIUM,UNCODED,PROPHYLAXIS OR NON-THERAPEUTIC USE,UNCODED,1,TABLET,QD,ORAL,2,SCREENING 2,-1,2013-12-03,1985,,,
CDISCPILOT01,CM,01-701-1181,11,1,CALCIUM MAGNESIUM,UNCODED,PROPHYLAXIS OR NON-THERAPEUTIC USE,UNCODED,1,TABLET,QD,ORAL,3,BASELINE,1,2013-12-05,1985,,,
CDISCPILOT01,CM,01-701-1181,16,1,CALCIUM MAGNESIUM,UNCODED,PROPHYLAXIS OR NON-THERAPEUTIC USE,UNCODED,1,TABLET,QD,ORAL,4,WEEK 2,14,2013-12-12,1985,,,
CDISCPILOT01,CM,01-701-1181,22,1,CALCIUM MAGNESIUM,UNCODED,PROPHYLAXIS OR NON-THERAPEUTIC USE,UNCODED,1,TABLET,QD,ORAL,101,AE FOLLOW-UP,,2013-12-20,1985,,,
CDISCPILOT01,CM,01-701-1181,27,1,CALCIUM MAGNESIUM,UNCODED,PROPHYLAXIS OR NON-THERAPEUTIC USE,UNCODED,1,TABLET,QD,ORAL,201,RETRIEVAL,168,2014-05-23,1985,,,
CDISCPILOT01,CM,01-701-1181,21,6,MOTRIN,UNCODED,,UNCODED,200,mg,ONCE,ORAL,4,WEEK 2,14,2013-12-12,2013-12-09,2013-12-09,5,5
CDISCPILOT01,CM,01-701-1181,2,2,POTASSIUM,UNCODED,PROPHYLAXIS OR NON-THERAPEUTIC USE,UNCODED,1,TABLET,QD,ORAL,1,SCREENING 1,-7,2013-11-26,1985,,,
CDISCPILOT01,CM,01-701-1181,7,2,POTASSIUM,UNCODED,PROPHYLAXIS OR NON-THERAPEUTIC USE,UNCODED,1,TABLET,QD,ORAL,2,SCREENING 2,-1,2013-12-03,1985,,,
CDISCPILOT01,CM,01-701-1181,12,2,POTASSIUM,UNCODED,PROPHYLAXIS OR NON-THERAPEUTIC USE,UNCODED,1,TABLET,QD,ORAL,3,BASELINE,1,2013-12-05,1985,,,
CDISCPILOT01,CM,01-701-1181,17,2,POTASSIUM,UNCODED,PROPHYLAXIS OR NON-THERAPEUTIC USE,UNCODED,1,TABLET,QD,ORAL,4,WEEK 2,14,2013-12-12,1985,,,
CDISCPILOT01,CM,01-701-1181,23,2,POTASSIUM,UNCODED,PROPHYLAXIS OR NON-THERAPEUTIC USE,UNCODED,1,TABLET,QD,ORAL,101,AE FOLLOW-UP,,2013-12-20,1985,,,
CDISCPILOT01,CM,01-701-1181,28,2,POTASSIUM,UNCODED,PROPHYLAXIS OR NON-THERAPEUTIC USE,UNCODED,1,TABLET,QD,ORAL,201,RETRIEVAL,168,2014-05-23,1985,,,
CDISCPILOT01,CM,01-701-1181,4,3,TYLENOL,UNCODED,,UNCODED,500,mg,PRN,ORAL,1,SCREENING 1,-7,2013-11-26,2005,,,
CDISCPILOT01,CM,01-701-1181,9,3,TYLENOL,UNCODED,,UNCODED,500,mg,PRN,ORAL,2,SCREENING 2,-1,2013-12-03,2005,,,
CDISCPILOT01,CM,01-701-1181,14,3,TYLENOL,UNCODED,,UNCODED,500,mg,PRN,ORAL,3,BASELINE,1,2013-12-05,2005,,,
CDISCPILOT01,CM,01-701-1181,19,3,TYLENOL,UNCODED,,UNCODED,500,mg,PRN,ORAL,4,WEEK 2,14,2013-12-12,2005,,,
CDISCPILOT01,CM,01-701-1181,25,3,TYLENOL,UNCODED,,UNCODED,500,mg,PRN,ORAL,101,AE FOLLOW-UP,,2013-12-20,2005,,,
CDISCPILOT01,CM,01-701-1181,30,3,TYLENOL,UNCODED,,UNCODED,500,mg,PRN,ORAL,201,RETRIEVAL,168,2014-05-23,2005,,,
CDISCPILOT01,CM,01-701-1181,3,4,VITAMIN C,UNCODED,PROPHYLAXIS OR NON-THERAPEUTIC USE,UNCODED,1,TABLET,QD,ORAL,1,SCREENING 1,-7,2013-11-26,1985,,,
CDISCPILOT01,CM,01-701-1181,8,4,VITAMIN C,UNCODED,PROPHYLAXIS OR NON-THERAPEUTIC USE,UNCODED,1,TABLET,QD,ORAL,2,SCREENING 2,-1,2013-12-03,1985,,,
CDISCPILOT01,CM,01-701-1181,13,4,VITAMIN C,UNCODED,PROPHYLAXIS OR NON-THERAPEUTIC USE,UNCODED,1,TABLET,QD,ORAL,3,BASELINE,1,2013-12-05,1985,,,
CDISCPILOT01,CM,01-701-1181,18,4,VITAMIN C,UNCODED,PROPHYLAXIS OR NON-THERAPEUTIC USE,UNCODED,1,TABLET,QD,ORAL,4,WEEK 2,14,2013-12-12,1985,,,
CDISCPILOT01,CM,01-701-1181,24,4,VITAMIN C,UNCODED,PROPHYLAXIS OR NON-THERAPEUTIC USE,UNCODED,1,TABLET,QD,ORAL,101,AE FOLLOW-UP,,2013-12-20,1985,,,
CDISCPILOT01,CM,01-701-1181,29,4,VITAMIN C,UNCODED,PROPHYLAXIS OR NON-THERAPEUTIC USE,UNCODED,1,TABLET,QD,ORAL,201,RETRIEVAL,168,2014-05-23,1985,,,
CDISCPILOT01,CM,01-701-1181,5,5,VITAMIN E,UNCODED,PROPHYLAXIS OR NON-THERAPEUTIC USE,UNCODED,1,TABLET,QD,ORAL,1,SCREENING 1,-7,2013-11-26,2012-06-04,,-549,
CDISCPILOT01,CM,01-701-1181,10,5,VITAMIN E,UNCODED,PROPHYLAXIS OR NON-THERAPEUTIC USE,UNCODED,1,TABLET,QD,ORAL,2,SCREENING 2,-1,2013-12-03,2012-06-04,,-549,
CDISCPILOT01,CM,01-701-1181,15,5,VITAMIN E,UNCODED,PROPHYLAXIS OR NON-THERAPEUTIC USE,UNCODED,1,TABLET,QD,ORAL,3,BASELINE,1,2013-12-05,2012-06-04,,-549,
CDISCPILOT01,CM,01-701-1181,20,5,VITAMIN E,UNCODED,PROPHYLAXIS OR NON-THERAPEUTIC USE,UNCODED,1,TABLET,QD,ORAL,4,WEEK 2,14,2013-12-12,2012-06-04,,-549,
CDISCPILOT01,CM,01-701-1181,26,5,VITAMIN E,UNCODED,PROPHYLAXIS OR NON-THERAPEUTIC USE,UNCODED,1,TABLET,QD,ORAL,101,AE FOLLOW-UP,,2013-12-20,2012-06-04,,-549,
CDISCPILOT01,CM,01-701-1181,31,5,VITAMIN E,UNCODED,PROPHYLAXIS OR NON-THERAPEUTIC USE,UNCODED,1,TABLET,QD,ORAL,201,RETRIEVAL,168,2014-05-23,2012-06-04,,-549,
CDISCPILOT01,CM,01-701-1188,2,1,ASPIRIN,ACETYLSALICYLIC ACID,PROPHYLAXIS OR NON-THERAPEUTIC USE,NERVOUS SYSTEM,1,TABLET,QD,ORAL,1,SCREENING 1,-7,2013-02-03,2006,,,
CDISCPILOT01,CM,01-701-1188,4,1,ASPIRIN,ACETYLSALICYLIC ACID,PROPHYLAXIS OR NON-THERAPEUTIC USE,NERVOUS SYSTEM,1,TABLET,QD,ORAL,2,SCREENING 2,-1,2013-02-10,2006,,,
CDISCPILOT01,CM,01-701-1188,6,1,ASPIRIN,ACETYLSALICYLIC ACID,PROPHYLAXIS OR NON-THERAPEUTIC USE,NERVOUS SYSTEM,1,TABLET,QD,ORAL,3,BASELINE,1,2013-02-15,2006,,,
CDISCPILOT01,CM,01-701-1188,8,1,ASPIRIN,ACETYLSALICYLIC ACID,PROPHYLAXIS OR NON-THERAPEUTIC USE,NERVOUS SYSTEM,1,TABLET,QD,ORAL,4,WEEK 2,14,2013-03-02,2006,,,
CDISCPILOT01,CM,01-701-1188,10,1,ASPIRIN,ACETYLSALICYLIC ACID,PROPHYLAXIS OR NON-THERAPEUTIC USE,NERVOUS SYSTEM,1,TABLET,QD,ORAL,5,WEEK 4,28,2013-03-16,2006,,,
CDISCPILOT01,CM,01-701-1188,12,1,ASPIRIN,ACETYLSALICYLIC ACID,PROPHYLAXIS OR NON-THERAPEUTIC USE,NERVOUS SYSTEM,1,TABLET,QD,ORAL,6,AMBUL ECG REMOVAL,30,2013-03-18,2006,,,
CDISCPILOT01,CM,01-701-1188,14,1,ASPIRIN,ACETYLSALICYLIC ACID,PROPHYLAXIS OR NON-THERAPEUTIC USE,NERVOUS SYSTEM,1,TABLET,QD,ORAL,7,WEEK 6,42,2013-03-25,2006,,,
CDISCPILOT01,CM,01-701-1188,16,1,ASPIRIN,ACETYLSALICYLIC ACID,PROPHYLAXIS OR NON-THERAPEUTIC USE,NERVOUS SYSTEM,1,TABLET,QD,ORAL,101,AE FOLLOW-UP,,2013-06-01,2006,,,
CDISCPILOT01,CM,01-701-1188,18,1,ASPIRIN,ACETYLSALICYLIC ACID,PROPHYLAXIS OR NON-THERAPEUTIC USE,NERVOUS SYSTEM,1,TABLET,QD,ORAL,201,RETRIEVAL,168,2013-08-04,2006,,,
CDISCPILOT01,CM,01-701-1188,1,2,MULTIVITAMINS,UNCODED,PROPHYLAXIS OR NON-THERAPEUTIC USE,UNCODED,1,TABLET,QD,ORAL,1,SCREENING 1,-7,2013-02-03,2002,,,
CDISCPILOT01,CM,01-701-1188,3,2,MULTIVITAMINS,UNCODED,PROPHYLAXIS OR NON-THERAPEUTIC USE,UNCODED,1,TABLET,QD,ORAL,2,SCREENING 2,-1,2013-02-10,2002,,,
CDISCPILOT01,CM,01-701-1188,5,2,MULTIVITAMINS,UNCODED,PROPHYLAXIS OR NON-THERAPEUTIC USE,UNCODED,1,TABLET,QD,ORAL,3,BASELINE,1,2013-02-15,2002,,,
CDISCPILOT01,CM,01-701-1188,7,2,MULTIVITAMINS,UNCODED,PROPHYLAXIS OR NON-THERAPEUTIC USE,UNCODED,1,TABLET,QD,ORAL,4,WEEK 2,14,2013-03-02,2002,,,
CDISCPILOT01,CM,01-701-1188,9,2,MULTIVITAMINS,UNCODED,PROPHYLAXIS OR NON-THERAPEUTIC USE,UNCODED,1,TABLET,QD,ORAL,5,WEEK 4,28,2013-03-16,2002,,,
CDISCPILOT01,CM,01-701-1188,11,2,MULTIVITAMINS,UNCODED,PROPHYLAXIS OR NON-THERAPEUTIC USE,UNCODED,1,TABLET,QD,ORAL,6,AMBUL ECG REMOVAL,30,2013-03-18,2002,,,
CDISCPILOT01,CM,01-701-1188,13,2,MULTIVITAMINS,UNCODED,PROPHYLAXIS OR NON-THERAPEUTIC USE,UNCODED,1,TABLET,QD,ORAL,7,WEEK 6,42,2013-03-25,2002,,,
CDISCPILOT01,CM,01-701-1188,15,2,MULTIVITAMINS,UNCODED,PROPHYLAXIS OR NON-THERAPEUTIC USE,UNCODED,1,TABLET,QD,ORAL,101,AE FOLLOW-UP,,2013-06-01,2002,,,
CDISCPILOT01,CM,01-701-1188,17,2,MULTIVITAMINS,UNCODED,PROPHYLAXIS OR NON-THERAPEUTIC USE,UNCODED,1,TABLET,QD,ORAL,201,RETRIEVAL,168,2013-08-04,2002,,,
CDISCPILOT01,CM,01-701-1192,17,4,BIAXIN,UNCODED,,UNCODED,500,mg,BID,ORAL,8,WEEK 8,56,2012-09-23,2012-09-07,2012-09-23,48,64
CDISCPILOT01,CM,01-701-1192,22,4,BIAXIN,UNCODED,,UNCODED,500,mg,BID,ORAL,9,WEEK 12,84,2012-10-14,2012-09-07,2012-09-23,48,64
CDISCPILOT01,CM,01-701-1192,1,1,EXCEDRIN,UNCODED,,UNCODED,2,TABLET,PRN,ORAL,1,SCREENING 1,-7,2012-07-08,1999,,,
CDISCPILOT01,CM,01-701-1192,3,1,EXCEDRIN,UNCODED,,UNCODED,2,TABLET,PRN,ORAL,2,SCREENING 2,-1,2012-07-20,1999,,,
CDISCPILOT01,CM,01-701-1192,5,1,EXCEDRIN,UNCODED,,UNCODED,2,TABLET,PRN,ORAL,3,BASELINE,1,2012-07-22,1999,,,
CDISCPILOT01,CM,01-701-1192,7,1,EXCEDRIN,UNCODED,,UNCODED,2,TABLET,PRN,ORAL,4,WEEK 2,14,2012-08-07,1999,,,
CDISCPILOT01,CM,01-701-1192,9,1,EXCEDRIN,UNCODED,,UNCODED,2,TABLET,PRN,ORAL,5,WEEK 4,28,2012-08-21,1999,,,
CDISCPILOT01,CM,01-701-1192,11,1,EXCEDRIN,UNCODED,,UNCODED,2,TABLET,PRN,ORAL,6,AMBUL ECG REMOVAL,30,2012-08-23,1999,,,
CDISCPILOT01,CM,01-701-1192,13,1,EXCEDRIN,UNCODED,,UNCODED,2,TABLET,PRN,ORAL,7,WEEK 6,42,2012-09-04,1999,,,
CDISCPILOT01,CM,01-701-1192,15,1,EXCEDRIN,UNCODED,,UNCODED,2,TABLET,PRN,ORAL,8,WEEK 8,56,2012-09-23,1999,,,
CDISCPILOT01,CM,01-701-1192,20,1,EXCEDRIN,UNCODED,,UNCODED,2,TABLET,PRN,ORAL,9,WEEK 12,84,2012-10-14,1999,,,
CDISCPILOT01,CM,01-701-1192,25,1,EXCEDRIN,UNCODED,,UNCODED,2,TABLET,PRN,ORAL,10,WEEK 16,112,2012-11-15,1999,,,
CDISCPILOT01,CM,01-701-1192,27,1,EXCEDRIN,UNCODED,,UNCODED,2,TABLET,PRN,ORAL,11,WEEK 20,140,2012-12-13,1999,,,
CDISCPILOT01,CM,01-701-1192,31,1,EXCEDRIN,UNCODED,,UNCODED,2,TABLET,PRN,ORAL,12,WEEK 24,168,2013-01-11,1999,,,
CDISCPILOT01,CM,01-701-1192,35,1,EXCEDRIN,UNCODED,,UNCODED,2,TABLET,PRN,ORAL,13,WEEK 26,182,2013-01-20,1999,,,
CDISCPILOT01,CM,01-701-1192,29,7,HYDROCORTISONE,HYDROCORTISONE,,"SYSTEMIC HORMONAL PREPARATIONS, EXCL.",1,VIAL,PRN,TOPICAL,11,WEEK 20,140,2012-12-13,2012-12-08,,140,
CDISCPILOT01,CM,01-701-1192,33,7,HYDROCORTISONE,HYDROCORTISONE,,"SYSTEMIC HORMONAL PREPARATIONS, EXCL.",1,VIAL,PRN,TOPICAL,12,WEEK 24,168,2013-01-11,2012-12-08,,140,
CDISCPILOT01,CM,01-701-1192,37,7,HYDROCORTISONE,HYDROCORTISONE,,"SYSTEMIC HORMONAL PREPARATIONS, EXCL.",1,VIAL,PRN,TOPICAL,13,WEEK 26,182,2013-01-20,2012-12-08,,140,
CDISCPILOT01,CM,01-701-1192,2,2,MULTIVITAMINS,UNCODED,PROPHYLAXIS OR NON-THERAPEUTIC USE,UNCODED,2,TABLET,TID,ORAL,1,SCREENING 1,-7,2012-07-08,2011-05-19,,-430,
CDISCPILOT01,CM,01-701-1192,4,2,MULTIVITAMINS,UNCODED,PROPHYLAXIS OR NON-THERAPEUTIC USE,UNCODED,2,TABLET,TID,ORAL,2,SCREENING 2,-1,2012-07-20,2011-05-19,,-430,
CDISCPILOT01,CM,01-701-1192,6,2,MULTIVITAMINS,UNCODED,PROPHYLAXIS OR NON-THERAPEUTIC USE,UNCODED,2,TABLET,TID,ORAL,3,BASELINE,1,2012-07-22,2011-05-19,,-430,
CDISCPILOT01,CM,01-701-1192,8,2,MULTIVITAMINS,UNCODED,PROPHYLAXIS OR NON-THERAPEUTIC USE,UNCODED,2,TABLET,TID,ORAL,4,WEEK 2,14,2012-08-07,2011-05-19,,-430,
CDISCPILOT01,CM,01-701-1192,10,2,MULTIVITAMINS,UNCODED,PROPHYLAXIS OR NON-THERAPEUTIC USE,UNCODED,2,TABLET,TID,ORAL,5,WEEK 4,28,2012-08-21,2011-05-19,,-430,
CDISCPILOT01,CM,01-701-1192,12,2,MULTIVITAMINS,UNCODED,PROPHYLAXIS OR NON-THERAPEUTIC USE,UNCODED,2,TABLET,TID,ORAL,6,AMBUL ECG REMOVAL,30,2012-08-23,2011-05-19,,-430,
CDISCPILOT01,CM,01-701-1192,14,2,MULTIVITAMINS,UNCODED,PROPHYLAXIS OR NON-THERAPEUTIC USE,UNCODED,2,TABLET,TID,ORAL,7,WEEK 6,42,2012-09-04,2011-05-19,,-430,
CDISCPILOT01,CM,01-701-1192,16,2,MULTIVITAMINS,UNCODED,PROPHYLAXIS OR NON-THERAPEUTIC USE,UNCODED,2,TABLET,TID,ORAL,8,WEEK 8,56,2012-09-23,2011-05-19,,-430,
CDISCPILOT01,CM,01-701-1192,21,2,MULTIVITAMINS,UNCODED,PROPHYLAXIS OR NON-THERAPEUTIC USE,UNCODED,2,TABLET,TID,ORAL,9,WEEK 12,84,2012-10-14,2011-05-19,,-430,
CDISCPILOT01,CM,01-701-1192,26,2,MULTIVITAMINS,UNCODED,PROPHYLAXIS OR NON-THERAPEUTIC USE,UNCODED,2,TABLET,TID,ORAL,10,WEEK 16,112,2012-11-15,2011-05-19,,-430,
CDISCPILOT01,CM,01-701-1192,28,2,MULTIVITAMINS,UNCODED,PROPHYLAXIS OR NON-THERAPEUTIC USE,UNCODED,2,TABLET,TID,ORAL,11,WEEK 20,140,2012-12-13,2011-05-19,,-430,
CDISCPILOT01,CM,01-701-1192,32,2,MULTIVITAMINS,UNCODED,PROPHYLAXIS OR NON-THERAPEUTIC USE,UNCODED,2,TABLET,TID,ORAL,12,WEEK 24,168,2013-01-11,2011-05-19,,-430,
CDISCPILOT01,CM,01-701-1192,36,2,MULTIVITAMINS,UNCODED,PROPHYLAXIS OR NON-THERAPEUTIC USE,UNCODED,2,TABLET,TID,ORAL,13,WEEK 26,182,2013-01-20,2011-05-19,,-430,
CDISCPILOT01,CM,01-701-1192,30,8,NEOSPORIN /USA/,UNCODED,,UNCODED,1,VIAL,PRN,TOPICAL,11,WEEK 20,140,2012-12-13,2012-12-09,,141,
CDISCPILOT01,CM,01-701-1192,34,8,NEOSPORIN /USA/,UNCODED,,UNCODED,1,VIAL,PRN,TOPICAL,12,WEEK 24,168,2013-01-11,2012-12-09,,141,
CDISCPILOT01,CM,01-701-1192,38,8,NEOSPORIN /USA/,UNCODED,,UNCODED,1,VIAL,PRN,TOPICAL,13,WEEK 26,182,2013-01-20,2012-12-09,,141,
CDISCPILOT01,CM,01-701-1192,24,5,PROVENTIL,SALBUTAMOL SULFATE,,RESPIRATORY SYSTEM,4,mg,BID,ORAL,9,WEEK 12,84,2012-10-14,2012-09-24,2012-10-06,65,77
CDISCPILOT01,CM,01-701-1192,19,6,ROBITUSSIN-DM,UNCODED,,UNCODED,1,tsp,PRN,ORAL,8,WEEK 8,56,2012-09-23,2012-09-08,2012-10-06,49,77
CDISCPILOT01,CM,01-701-1192,23,6,ROBITUSSIN-DM,UNCODED,,UNCODED,1,tsp,PRN,ORAL,9,WEEK 12,84,2012-10-14,2012-09-08,2012-10-06,49,77
CDISCPILOT01,CM,01-701-1192,18,3,ROCEPHIN,UNCODED,,UNCODED,,,,,8,WEEK 8,56,2012-09-23,2012-09-07,2012-09-08,48,49
CDISCPILOT01,CM,01-701-1203,5,3,ALPHAGAN,UNCODED,,UNCODED,1,gtt,BID,OPHTHALMIC,2,SCREENING 2,-1,2013-02-01,2013-01-31,,-2,
CDISCPILOT01,CM,01-701-1203,9,3,ALPHAGAN,UNCODED,,UNCODED,1,gtt,BID,OPHTHALMIC,3,BASELINE,1,2013-02-02,2013-01-31,,-2,
CDISCPILOT01,CM,01-701-1203,13,3,ALPHAGAN,UNCODED,,UNCODED,1,gtt,BID,OPHTHALMIC,4,WEEK 2,14,2013-02-23,2013-01-31,,-2,
CDISCPILOT01,CM,01-701-1203,17,3,ALPHAGAN,UNCODED,,UNCODED,1,gtt,BID,OPHTHALMIC,5,WEEK 4,28,2013-03-02,2013-01-31,,-2,
CDISCPILOT01,CM,01-701-1203,21,3,ALPHAGAN,UNCODED,,UNCODED,1,gtt,BID,OPHTHALMIC,6,AMBUL ECG REMOVAL,30,2013-03-04,2013-01-31,,-2,
CDISCPILOT01,CM,01-701-1203,25,3,ALPHAGAN,UNCODED,,UNCODED,1,gtt,BID,OPHTHALMIC,7,WEEK 6,42,2013-03-16,2013-01-31,,-2,
CDISCPILOT01,CM,01-701-1203,29,3,ALPHAGAN,UNCODED,,UNCODED,1,gtt,BID,OPHTHALMIC,8,WEEK 8,56,2013-03-30,2013-01-31,,-2,
CDISCPILOT01,CM,01-701-1203,33,3,ALPHAGAN,UNCODED,,UNCODED,1,gtt,BID,OPHTHALMIC,9,WEEK 12,84,2013-05-09,2013-01-31,,-2,
CDISCPILOT01,CM,01-701-1203,37,3,ALPHAGAN,UNCODED,,UNCODED,1,gtt,BID,OPHTHALMIC,10,WEEK 16,112,2013-05-25,2013-01-31,,-2,
CDISCPILOT01,CM,01-701-1203,41,3,ALPHAGAN,UNCODED,,UNCODED,1,gtt,BID,OPHTHALMIC,11,WEEK 20,140,2013-06-22,2013-01-31,,-2,
CDISCPILOT01,CM,01-701-1203,45,3,ALPHAGAN,UNCODED,,UNCODED,1,gtt,BID,OPHTHALMIC,12,WEEK 24,168,2013-07-22,2013-01-31,,-2,
CDISCPILOT01,CM,01-701-1203,51,3,ALPHAGAN,UNCODED,,UNCODED,1,gtt,BID,OPHTHALMIC,13,WEEK 26,182,2013-08-03,2013-01-31,,-2,
CDISCPILOT01,CM,01-701-1203,47,5,MOTRIN,UNCODED,,UNCODED,1,TABLET,PRN,ORAL,12,WEEK 24,168,2013-07-22,2013-07-04,,153,
CDISCPILOT01,CM,01-701-1203,53,5,MOTRIN,UNCODED,,UNCODED,1,TABLET,PRN,ORAL,13,WEEK 26,182,2013-08-03,2013-07-04,,153,
CDISCPILOT01,CM,01-701-1203,6,4,PILOSTAT,UNCODED,,UNCODED,1,gtt,BID,OPHTHALMIC,2,SCREENING 2,-1,2013-02-01,2013-01-31,,-2,
CDISCPILOT01,CM,01-701-1203,10,4,PILOSTAT,UNCODED,,UNCODED,1,gtt,BID,OPHTHALMIC,3,BASELINE,1,2013-02-02,2013-01-31,,-2,
CDISCPILOT01,CM,01-701-1203,14,4,PILOSTAT,UNCODED,,UNCODED,1,gtt,BID,OPHTHALMIC,4,WEEK 2,14,2013-02-23,2013-01-31,,-2,
CDISCPILOT01,CM,01-701-1203,18,4,PILOSTAT,UNCODED,,UNCODED,1,gtt,BID,OPHTHALMIC,5,WEEK 4,28,2013-03-02,2013-01-31,,-2,
CDISCPILOT01,CM,01-701-1203,22,4,PILOSTAT,UNCODED,,UNCODED,1,gtt,BID,OPHTHALMIC,6,AMBUL ECG REMOVAL,30,2013-03-04,2013-01-31,,-2,
CDISCPILOT01,CM,01-701-1203,26,4,PILOSTAT,UNCODED,,UNCODED,1,gtt,BID,OPHTHALMIC,7,WEEK 6,42,2013-03-16,2013-01-31,,-2,
CDISCPILOT01,CM,01-701-1203,30,4,PILOSTAT,UNCODED,,UNCODED,1,gtt,BID,OPHTHALMIC,8,WEEK 8,56,2013-03-30,2013-01-31,,-2,
CDISCPILOT01,CM,01-701-1203,34,4,PILOSTAT,UNCODED,,UNCODED,1,gtt,BID,OPHTHALMIC,9,WEEK 12,84,2013-05-09,2013-01-31,,-2,
CDISCPILOT01,CM,01-701-1203,38,4,PILOSTAT,UNCODED,,UNCODED,1,gtt,BID,OPHTHALMIC,10,WEEK 16,112,2013-05-25,2013-01-31,,-2,
CDISCPILOT01,CM,01-701-1203,42,4,PILOSTAT,UNCODED,,UNCODED,1,gtt,BID,OPHTHALMIC,11,WEEK 20,140,2013-06-22,2013-01-31,,-2,
CDISCPILOT01,CM,01-701-1203,46,4,PILOSTAT,UNCODED,,UNCODED,1,gtt,BID,OPHTHALMIC,12,WEEK 24,168,2013-07-22,2013-01-31,,-2,
CDISCPILOT01,CM,01-701-1203,52,4,PILOSTAT,UNCODED,,UNCODED,1,gtt,BID,OPHTHALMIC,13,WEEK 26,182,2013-08-03,2013-01-31,,-2,
CDISCPILOT01,CM,01-701-1203,1,1,TIMOPTIC,UNCODED,,UNCODED,1,gtt,BID,OPHTHALMIC,1,SCREENING 1,-7,2013-01-25,1986,,,
CDISCPILOT01,CM,01-701-1203,3,1,TIMOPTIC,UNCODED,,UNCODED,1,gtt,BID,OPHTHALMIC,2,SCREENING 2,-1,2013-02-01,1986,,,
CDISCPILOT01,CM,01-701-1203,7,1,TIMOPTIC,UNCODED,,UNCODED,1,gtt,BID,OPHTHALMIC,3,BASELINE,1,2013-02-02,1986,,,
CDISCPILOT01,CM,01-701-1203,11,1,TIMOPTIC,UNCODED,,UNCODED,1,gtt,BID,OPHTHALMIC,4,WEEK 2,14,2013-02-23,1986,,,
CDISCPILOT01,CM,01-701-1203,15,1,TIMOPTIC,UNCODED,,UNCODED,1,gtt,BID,OPHTHALMIC,5,WEEK 4,28,2013-03-02,1986,,,
CDISCPILOT01,CM,01-701-1203,19,1,TIMOPTIC,UNCODED,,UNCODED,1,gtt,BID,OPHTHALMIC,6,AMBUL ECG REMOVAL,30,2013-03-04,1986,,,
CDISCPILOT01,CM,01-701-1203,23,1,TIMOPTIC,UNCODED,,UNCODED,1,gtt,BID,OPHTHALMIC,7,WEEK 6,42,2013-03-16,1986,,,
CDISCPILOT01,CM,01-701-1203,27,1,TIMOPTIC,UNCODED,,UNCODED,1,gtt,BID,OPHTHALMIC,8,WEEK 8,56,2013-03-30,1986,,,
CDISCPILOT01,CM,01-701-1203,31,1,TIMOPTIC,UNCODED,,UNCODED,1,gtt,BID,OPHTHALMIC,9,WEEK 12,84,2013-05-09,1986,,,
CDISCPILOT01,CM,01-701-1203,35,1,TIMOPTIC,UNCODED,,UNCODED,1,gtt,BID,OPHTHALMIC,10,WEEK 16,112,2013-05-25,1986,,,
CDISCPILOT01,CM,01-701-1203,39,1,TIMOPTIC,UNCODED,,UNCODED,1,gtt,BID,OPHTHALMIC,11,WEEK 20,140,2013-06-22,1986,,,
CDISCPILOT01,CM,01-701-1203,43,1,TIMOPTIC,UNCODED,,UNCODED,1,gtt,BID,OPHTHALMIC,12,WEEK 24,168,2013-07-22,1986,,,
CDISCPILOT01,CM,01-701-1203,49,1,TIMOPTIC,UNCODED,,UNCODED,1,gtt,BID,OPHTHALMIC,13,WEEK 26,182,2013-08-03,1986,,,
CDISCPILOT01,CM,01-701-1203,2,2,TRUSOPT,UNCODED,,UNCODED,1,gtt,BID,OPHTHALMIC,1,SCREENING 1,-7,2013-01-25,1986,,,
CDISCPILOT01,CM,01-701-1203,4,2,TRUSOPT,UNCODED,,UNCODED,1,gtt,BID,OPHTHALMIC,2,SCREENING 2,-1,2013-02-01,1986,,,
CDISCPILOT01,CM,01-701-1203,8,2,TRUSOPT,UNCODED,,UNCODED,1,gtt,BID,OPHTHALMIC,3,BASELINE,1,2013-02-02,1986,,,
CDISCPILOT01,CM,01-701-1203,12,2,TRUSOPT,UNCODED,,UNCODED,1,gtt,BID,OPHTHALMIC,4,WEEK 2,14,2013-02-23,1986,,,
CDISCPILOT01,CM,01-701-1203,16,2,TRUSOPT,UNCODED,,UNCODED,1,gtt,BID,OPHTHALMIC,5,WEEK 4,28,2013-03-02,1986,,,
CDISCPILOT01,CM,01-701-1203,20,2,TRUSOPT,UNCODED,,UNCODED,1,gtt,BID,OPHTHALMIC,6,AMBUL ECG REMOVAL,30,2013-03-04,1986,,,
CDISCPILOT01,CM,01-701-1203,24,2,TRUSOPT,UNCODED,,UNCODED,1,gtt,BID,OPHTHALMIC,7,WEEK 6,42,2013-03-16,1986,,,
CDISCPILOT01,CM,01-701-1203,28,2,TRUSOPT,UNCODED,,UNCODED,1,gtt,BID,OPHTHALMIC,8,WEEK 8,56,2013-03-30,1986,,,
CDISCPILOT01,CM,01-701-1203,32,2,TRUSOPT,UNCODED,,UNCODED,1,gtt,BID,OPHTHALMIC,9,WEEK 12,84,2013-05-09,1986,,,
CDISCPILOT01,CM,01-701-1203,36,2,TRUSOPT,UNCODED,,UNCODED,1,gtt,BID,OPHTHALMIC,10,WEEK 16,112,2013-05-25,1986,,,
CDISCPILOT01,CM,01-701-1203,40,2,TRUSOPT,UNCODED,,UNCODED,1,gtt,BID,OPHTHALMIC,11,WEEK 20,140,2013-06-22,1986,,,
CDISCPILOT01,CM,01-701-1203,44,2,TRUSOPT,UNCODED,,UNCODED,1,gtt,BID,OPHTHALMIC,12,WEEK 24,168,2013-07-22,1986,,,
CDISCPILOT01,CM,01-701-1203,50,2,TRUSOPT,UNCODED,,UNCODED,1,gtt,BID,OPHTHALMIC,13,WEEK 26,182,2013-08-03,1986,,,
CDISCPILOT01,CM,01-701-1203,48,6,TYLENOL,UNCODED,,UNCODED,1,TABLET,PRN,ORAL,12,WEEK 24,168,2013-07-22,2013-07-04,,153,
CDISCPILOT01,CM,01-701-1203,54,6,TYLENOL,UNCODED,,UNCODED,1,TABLET,PRN,ORAL,13,WEEK 26,182,2013-08-03,2013-07-04,,153,
CDISCPILOT01,CM,01-701-1211,1,1,DEMEROL,UNCODED,,UNCODED,50,mg,ONCE,INTRAVENOUS,4,WEEK 2,14,2012-11-28,2012-11-21,2012-11-21,7,7
CDISCPILOT01,CM,01-701-1211,3,3,HYDROCORTISONE,HYDROCORTISONE,,"SYSTEMIC HORMONAL PREPARATIONS, EXCL.",1,VIAL,PRN,TOPICAL,5,WEEK 4,28,2012-12-11,2012-12-08,,24,
CDISCPILOT01,CM,01-701-1211,4,3,HYDROCORTISONE,HYDROCORTISONE,,"SYSTEMIC HORMONAL PREPARATIONS, EXCL.",1,VIAL,PRN,TOPICAL,6,AMBUL ECG REMOVAL,30,2012-12-13,2012-12-08,,24,
CDISCPILOT01,CM,01-701-1211,5,3,HYDROCORTISONE,HYDROCORTISONE,,"SYSTEMIC HORMONAL PREPARATIONS, EXCL.",1,VIAL,PRN,TOPICAL,7,WEEK 6,42,2012-12-25,2012-12-08,,24,
CDISCPILOT01,CM,01-701-1211,6,3,HYDROCORTISONE,HYDROCORTISONE,,"SYSTEMIC HORMONAL PREPARATIONS, EXCL.",1,VIAL,PRN,TOPICAL,8,WEEK 8,56,2013-01-08,2012-12-08,,24,
CDISCPILOT01,CM,01-701-1211,9,3,HYDROCORTISONE,HYDROCORTISONE,,"SYSTEMIC HORMONAL PREPARATIONS, EXCL.",1,VIAL,PRN,TOPICAL,9,WEEK 12,84,2013-01-14,2012-12-08,,24,
CDISCPILOT01,CM,01-701-1211,7,4,LOMOTIL,UNCODED,,UNCODED,2.5,mg,QD,ORAL,8,WEEK 8,56,2013-01-08,2013-01-04,2013-01-04,51,51
CDISCPILOT01,CM,01-701-1211,8,5,MYLANTA,UNCODED,,UNCODED,1,tsp,BID,ORAL,8,WEEK 8,56,2013-01-08,2013-01-05,,52,
CDISCPILOT01,CM,01-701-1211,10,5,MYLANTA,UNCODED,,UNCODED,1,tsp,BID,ORAL,9,WEEK 12,84,2013-01-14,2013-01-05,,52,
CDISCPILOT01,CM,01-701-1211,2,2,TYLENOL W/CODEINE NO. 3,UNCODED,,UNCODED,2,TABLET,ONCE,ORAL,4,WEEK 2,14,2012-11-28,2012-11-21,2012-11-21,7,7
CDISCPILOT01,CM,01-701-1234,1,1,NIACIN,UNCODED,PROPHYLAXIS OR NON-THERAPEUTIC USE,UNCODED,1000,mg,BID,ORAL,1,SCREENING 1,-7,2013-03-20,2001,,,
CDISCPILOT01,CM,01-701-1234,2,1,NIACIN,UNCODED,PROPHYLAXIS OR NON-THERAPEUTIC USE,UNCODED,1000,mg,BID,ORAL,2,SCREENING 2,-1,2013-03-28,2001,,,
CDISCPILOT01,CM,01-701-1234,3,1,NIACIN,UNCODED,PROPHYLAXIS OR NON-THERAPEUTIC USE,UNCODED,1000,mg,BID,ORAL,3,BASELINE,1,2013-03-30,2001,,,
CDISCPILOT01,CM,01-701-1234,4,1,NIACIN,UNCODED,PROPHYLAXIS OR NON-THERAPEUTIC USE,UNCODED,1000,mg,BID,ORAL,4,WEEK 2,14,2013-04-21,2001,,,
CDISCPILOT01,CM,01-701-1234,5,1,NIACIN,UNCODED,PROPHYLAXIS OR NON-THERAPEUTIC USE,UNCODED,1000,mg,BID,ORAL,5,WEEK 4,28,2013-04-28,2001,,,
CDISCPILOT01,CM,01-701-1234,6,1,NIACIN,UNCODED,PROPHYLAXIS OR NON-THERAPEUTIC USE,UNCODED,1000,mg,BID,ORAL,6,AMBUL ECG REMOVAL,30,2013-04-30,2001,,,
CDISCPILOT01,CM,01-701-1234,7,1,NIACIN,UNCODED,PROPHYLAXIS OR NON-THERAPEUTIC USE,UNCODED,1000,mg,BID,ORAL,7,WEEK 6,42,2013-05-08,2001,,,
CDISCPILOT01,CM,01-701-1234,8,1,NIACIN,UNCODED,PROPHYLAXIS OR NON-THERAPEUTIC USE,UNCODED,1000,mg,BID,ORAL,8,WEEK 8,56,2013-05-26,2001,,,
CDISCPILOT01,CM,01-701-1234,9,1,NIACIN,UNCODED,PROPHYLAXIS OR NON-THERAPEUTIC USE,UNCODED,1000,mg,BID,ORAL,9,WEEK 12,84,2013-07-07,2001,,,
CDISCPILOT01,CM,01-701-1234,10,1,NIACIN,UNCODED,PROPHYLAXIS OR NON-THERAPEUTIC USE,UNCODED,1000,mg,BID,ORAL,10,WEEK 16,112,2013-07-27,2001,,,
CDISCPILOT01,CM,01-701-1234,11,1,NIACIN,UNCODED,PROPHYLAXIS OR NON-THERAPEUTIC USE,UNCODED,1000,mg,BID,ORAL,11,WEEK 20,140,2013-08-18,2001,,,
CDISCPILOT01,CM,01-701-1234,12,1,NIACIN,UNCODED,PROPHYLAXIS OR NON-THERAPEUTIC USE,UNCODED,1000,mg,BID,ORAL,12,WEEK 24,168,2013-09-10,2001,,,
CDISCPILOT01,CM,01-701-1234,13,1,NIACIN,UNCODED,PROPHYLAXIS OR NON-THERAPEUTIC USE,UNCODED,1000,mg,BID,ORAL,13,WEEK 26,182,2013-09-22,2001,,,
CDISCPILOT01,CM,01-701-1239,1,1,ADVIL,UNCODED,,UNCODED,2,TABLET,PRN,ORAL,1,SCREENING 1,-7,2013-12-28,2007,,,
CDISCPILOT01,CM,01-701-1239,3,1,ADVIL,UNCODED,,UNCODED,2,TABLET,PRN,ORAL,2,SCREENING 2,-1,2014-01-09,2007,,,
CDISCPILOT01,CM,01-701-1239,5,1,ADVIL,UNCODED,,UNCODED,2,TABLET,PRN,ORAL,3,BASELINE,1,2014-01-11,2007,,,
CDISCPILOT01,CM,01-701-1239,7,1,ADVIL,UNCODED,,UNCODED,2,TABLET,PRN,ORAL,4,WEEK 2,14,2014-01-25,2007,,,
CDISCPILOT01,CM,01-701-1239,9,1,ADVIL,UNCODED,,UNCODED,2,TABLET,PRN,ORAL,5,WEEK 4,28,2014-02-08,2007,,,
CDISCPILOT01,CM,01-701-1239,12,1,ADVIL,UNCODED,,UNCODED,2,TABLET,PRN,ORAL,6,AMBUL ECG REMOVAL,30,2014-02-10,2007,,,
CDISCPILOT01,CM,01-701-1239,15,1,ADVIL,UNCODED,,UNCODED,2,TABLET,PRN,ORAL,7,WEEK 6,42,2014-02-19,2007,,,
CDISCPILOT01,CM,01-701-1239,18,1,ADVIL,UNCODED,,UNCODED,2,TABLET,PRN,ORAL,8,WEEK 8,56,2014-03-06,2007,,,
CDISCPILOT01,CM,01-701-1239,21,1,ADVIL,UNCODED,,UNCODED,2,TABLET,PRN,ORAL,9,WEEK 12,84,2014-04-02,2007,,,
CDISCPILOT01,CM,01-701-1239,24,1,ADVIL,UNCODED,,UNCODED,2,TABLET,PRN,ORAL,10,WEEK 16,112,2014-05-02,2007,,,
CDISCPILOT01,CM,01-701-1239,27,1,ADVIL,UNCODED,,UNCODED,2,TABLET,PRN,ORAL,11,WEEK 20,140,2014-05-28,2007,,,
CDISCPILOT01,CM,01-701-1239,30,1,ADVIL,UNCODED,,UNCODED,2,TABLET,PRN,ORAL,12,WEEK 24,168,2014-06-27,2007,,,
CDISCPILOT01,CM,01-701-1239,33,1,ADVIL,UNCODED,,UNCODED,2,TABLET,PRN,ORAL,13,WEEK 26,182,2014-07-11,2007,,,
CDISCPILOT01,CM,01-701-1239,11,3,DIABETA,UNCODED,,UNCODED,2.5,mg,QD,ORAL,5,WEEK 4,28,2014-02-08,2014-02-04,,25,
CDISCPILOT01,CM,01-701-1239,14,3,DIABETA,UNCODED,,UNCODED,2.5,mg,QD,ORAL,6,AMBUL ECG REMOVAL,30,2014-02-10,2014-02-04,,25,
CDISCPILOT01,CM,01-701-1239,17,3,DIABETA,UNCODED,,UNCODED,2.5,mg,QD,ORAL,7,WEEK 6,42,2014-02-19,2014-02-04,,25,
CDISCPILOT01,CM,01-701-1239,20,3,DIABETA,UNCODED,,UNCODED,2.5,mg,QD,ORAL,8,WEEK 8,56,2014-03-06,2014-02-04,,25,
CDISCPILOT01,CM,01-701-1239,23,3,DIABETA,UNCODED,,UNCODED,2.5,mg,QD,ORAL,9,WEEK 12,84,2014-04-02,2014-02-04,,25,
CDISCPILOT01,CM,01-701-1239,26,3,DIABETA,UNCODED,,UNCODED,2.5,mg,QD,ORAL,10,WEEK 16,112,2014-05-02,2014-02-04,,25,
CDISCPILOT01,CM,01-701-1239,29,3,DIABETA,UNCODED,,UNCODED,2.5,mg,QD,ORAL,11,WEEK 20,140,2014-05-28,2014-02-04,,25,
CDISCPILOT01,CM,01-701-1239,32,3,DIABETA,UNCODED,,UNCODED,2.5,mg,QD,ORAL,12,WEEK 24,168,2014-06-27,2014-02-04,,25,
CDISCPILOT01,CM,01-701-1239,35,3,DIABETA,UNCODED,,UNCODED,2.5,mg,QD,ORAL,13,WEEK 26,182,2014-07-11,2014-02-04,,25,
CDISCPILOT01,CM,01-701-1239,2,2,MOTRIN,UNCODED,,UNCODED,2,TABLET,PRN,ORAL,1,SCREENING 1,-7,2013-12-28,2007,,,
CDISCPILOT01,CM,01-701-1239,4,2,MOTRIN,UNCODED,,UNCODED,2,TABLET,PRN,ORAL,2,SCREENING 2,-1,2014-01-09,2007,,,
CDISCPILOT01,CM,01-701-1239,6,2,MOTRIN,UNCODED,,UNCODED,2,TABLET,PRN,ORAL,3,BASELINE,1,2014-01-11,2007,,,
CDISCPILOT01,CM,01-701-1239,8,2,MOTRIN,UNCODED,,UNCODED,2,TABLET,PRN,ORAL,4,WEEK 2,14,2014-01-25,2007,,,
CDISCPILOT01,CM,01-701-1239,10,2,MOTRIN,UNCODED,,UNCODED,2,TABLET,PRN,ORAL,5,WEEK 4,28,2014-02-08,2007,,,
CDISCPILOT01,CM,01-701-1239,13,2,MOTRIN,UNCODED,,UNCODED,2,TABLET,PRN,ORAL,6,AMBUL ECG REMOVAL,30,2014-02-10,2007,,,
CDISCPILOT01,CM,01-701-1239,16,2,MOTRIN,UNCODED,,UNCODED,2,TABLET,PRN,ORAL,7,WEEK 6,42,2014-02-19,2007,,,
CDISCPILOT01,CM,01-701-1239,19,2,MOTRIN,UNCODED,,UNCODED,2,TABLET,PRN,ORAL,8,WEEK 8,56,2014-03-06,2007,,,
CDISCPILOT01,CM,01-701-1239,22,2,MOTRIN,UNCODED,,UNCODED,2,TABLET,PRN,ORAL,9,WEEK 12,84,2014-04-02,2007,,,
CDISCPILOT01,CM,01-701-1239,25,2,MOTRIN,UNCODED,,UNCODED,2,TABLET,PRN,ORAL,10,WEEK 16,112,2014-05-02,2007,,,
CDISCPILOT01,CM,01-701-1239,28,2,MOTRIN,UNCODED,,UNCODED,2,TABLET,PRN,ORAL,11,WEEK 20,140,2014-05-28,2007,,,
CDISCPILOT01,CM,01-701-1239,31,2,MOTRIN,UNCODED,,UNCODED,2,TABLET,PRN,ORAL,12,WEEK 24,168,2014-06-27,2007,,,
CDISCPILOT01,CM,01-701-1239,34,2,MOTRIN,UNCODED,,UNCODED,2,TABLET,PRN,ORAL,13,WEEK 26,182,2014-07-11,2007,,,
CDISCPILOT01,CM,01-701-1275,1,1,TYLENOL,UNCODED,,UNCODED,325,mg,PRN,ORAL,1,SCREENING 1,-7,2014-01-25,1997,,,
CDISCPILOT01,CM,01-701-1275,2,1,TYLENOL,UNCODED,,UNCODED,325,mg,PRN,ORAL,2,SCREENING 2,-1,2014-02-05,1997,,,
CDISCPILOT01,CM,01-701-1275,3,1,TYLENOL,UNCODED,,UNCODED,325,mg,PRN,ORAL,3,BASELINE,1,2014-02-07,1997,,,
CDISCPILOT01,CM,01-701-1275,4,1,TYLENOL,UNCODED,,UNCODED,325,mg,PRN,ORAL,4,WEEK 2,14,2014-02-22,1997,,,
CDISCPILOT01,CM,01-701-1275,5,1,TYLENOL,UNCODED,,UNCODED,325,mg,PRN,ORAL,5,WEEK 4,28,2014-03-07,1997,,,
CDISCPILOT01,CM,01-701-1275,6,1,TYLENOL,UNCODED,,UNCODED,325,mg,PRN,ORAL,6,AMBUL ECG REMOVAL,30,2014-03-08,1997,,,
CDISCPILOT01,CM,01-701-1275,7,1,TYLENOL,UNCODED,,UNCODED,325,mg,PRN,ORAL,7,WEEK 6,42,2014-03-22,1997,,,
CDISCPILOT01,CM,01-701-1275,9,1,TYLENOL,UNCODED,,UNCODED,325,mg,PRN,ORAL,8,WEEK 8,56,2014-04-05,1997,,,
CDISCPILOT01,CM,01-701-1275,11,1,TYLENOL,UNCODED,,UNCODED,325,mg,PRN,ORAL,9,WEEK 12,84,2014-05-03,1997,,,
CDISCPILOT01,CM,01-701-1275,13,1,TYLENOL,UNCODED,,UNCODED,325,mg,PRN,ORAL,10,WEEK 16,112,2014-06-14,1997,,,
CDISCPILOT01,CM,01-701-1275,8,2,VITAMIN C,UNCODED,,UNCODED,500,mg,QD,ORAL,7,WEEK 6,42,2014-03-22,2014-03-12,,34,
CDISCPILOT01,CM,01-701-1275,10,2,VITAMIN C,UNCODED,,UNCODED,500,mg,QD,ORAL,8,WEEK 8,56,2014-04-05,2014-03-12,,34,
CDISCPILOT01,CM,01-701-1275,12,2,VITAMIN C,UNCODED,,UNCODED,500,mg,QD,ORAL,9,WEEK 12,84,2014-05-03,2014-03-12,,34,
CDISCPILOT01,CM,01-701-1275,14,2,VITAMIN C,UNCODED,,UNCODED,500,mg,QD,ORAL,10,WEEK 16,112,2014-06-14,2014-03-12,,34,
CDISCPILOT01,CM,01-701-1287,17,3,ALOE VERA,UNCODED,,UNCODED,1,VIAL,PRN,TOPICAL,8,WEEK 8,56,2014-03-21,2014-03-09,,44,
CDISCPILOT01,CM,01-701-1287,20,3,ALOE VERA,UNCODED,,UNCODED,1,VIAL,PRN,TOPICAL,9,WEEK 12,84,2014-04-17,2014-03-09,,44,
CDISCPILOT01,CM,01-701-1287,23,3,ALOE VERA,UNCODED,,UNCODED,1,VIAL,PRN,TOPICAL,10,WEEK 16,112,2014-05-15,2014-03-09,,44,
CDISCPILOT01,CM,01-701-1287,27,3,ALOE VERA,UNCODED,,UNCODED,1,VIAL,PRN,TOPICAL,11,WEEK 20,140,2014-06-12,2014-03-09,,44,
CDISCPILOT01,CM,01-701-1287,31,3,ALOE VERA,UNCODED,,UNCODED,1,VIAL,PRN,TOPICAL,12,WEEK 24,168,2014-07-12,2014-03-09,,44,
CDISCPILOT01,CM,01-701-1287,35,3,ALOE VERA,UNCODED,,UNCODED,1,VIAL,PRN,TOPICAL,13,WEEK 26,182,2014-07-26,2014-03-09,,44,
CDISCPILOT01,CM,01-701-1287,24,4,HYDROCORTISONE,HYDROCORTISONE,,"SYSTEMIC HORMONAL PREPARATIONS, EXCL.",2,VIAL,QD,TOPICAL,10,WEEK 16,112,2014-05-15,2014-04-18,,84,
CDISCPILOT01,CM,01-701-1287,28,4,HYDROCORTISONE,HYDROCORTISONE,,"SYSTEMIC HORMONAL PREPARATIONS, EXCL.",2,VIAL,QD,TOPICAL,11,WEEK 20,140,2014-06-12,2014-04-18,,84,
CDISCPILOT01,CM,01-701-1287,32,4,HYDROCORTISONE,HYDROCORTISONE,,"SYSTEMIC HORMONAL PREPARATIONS, EXCL.",2,VIAL,QD,TOPICAL,12,WEEK 24,168,2014-07-12,2014-04-18,,84,
CDISCPILOT01,CM,01-701-1287,36,4,HYDROCORTISONE,HYDROCORTISONE,,"SYSTEMIC HORMONAL PREPARATIONS, EXCL.",2,VIAL,QD,TOPICAL,13,WEEK 26,182,2014-07-26,2014-04-18,,84,
CDISCPILOT01,CM,01-701-1287,1,1,MULTIVITAMIN,UNCODED,PROPHYLAXIS OR NON-THERAPEUTIC USE,UNCODED,1,TABLET,QD,ORAL,1,SCREENING 1,-7,2014-01-17,2001-10,,,
CDISCPILOT01,CM,01-701-1287,3,1,MULTIVITAMIN,UNCODED,PROPHYLAXIS OR NON-THERAPEUTIC USE,UNCODED,1,TABLET,QD,ORAL,2,SCREENING 2,-1,2014-01-23,2001-10,,,
CDISCPILOT01,CM,01-701-1287,5,1,MULTIVITAMIN,UNCODED,PROPHYLAXIS OR NON-THERAPEUTIC USE,UNCODED,1,TABLET,QD,ORAL,3,BASELINE,1,2014-01-25,2001-10,,,
CDISCPILOT01,CM,01-701-1287,7,1,MULTIVITAMIN,UNCODED,PROPHYLAXIS OR NON-THERAPEUTIC USE,UNCODED,1,TABLET,QD,ORAL,4,WEEK 2,14,2014-02-11,2001-10,,,
CDISCPILOT01,CM,01-701-1287,9,1,MULTIVITAMIN,UNCODED,PROPHYLAXIS OR NON-THERAPEUTIC USE,UNCODED,1,TABLET,QD,ORAL,5,WEEK 4,28,2014-02-20,2001-10,,,
CDISCPILOT01,CM,01-701-1287,11,1,MULTIVITAMIN,UNCODED,PROPHYLAXIS OR NON-THERAPEUTIC USE,UNCODED,1,TABLET,QD,ORAL,6,AMBUL ECG REMOVAL,30,2014-02-22,2001-10,,,
CDISCPILOT01,CM,01-701-1287,13,1,MULTIVITAMIN,UNCODED,PROPHYLAXIS OR NON-THERAPEUTIC USE,UNCODED,1,TABLET,QD,ORAL,7,WEEK 6,42,2014-03-06,2001-10,,,
CDISCPILOT01,CM,01-701-1287,15,1,MULTIVITAMIN,UNCODED,PROPHYLAXIS OR NON-THERAPEUTIC USE,UNCODED,1,TABLET,QD,ORAL,8,WEEK 8,56,2014-03-21,2001-10,,,
CDISCPILOT01,CM,01-701-1287,18,1,MULTIVITAMIN,UNCODED,PROPHYLAXIS OR NON-THERAPEUTIC USE,UNCODED,1,TABLET,QD,ORAL,9,WEEK 12,84,2014-04-17,2001-10,,,
CDISCPILOT01,CM,01-701-1287,21,1,MULTIVITAMIN,UNCODED,PROPHYLAXIS OR NON-THERAPEUTIC USE,UNCODED,1,TABLET,QD,ORAL,10,WEEK 16,112,2014-05-15,2001-10,,,
CDISCPILOT01,CM,01-701-1287,25,1,MULTIVITAMIN,UNCODED,PROPHYLAXIS OR NON-THERAPEUTIC USE,UNCODED,1,TABLET,QD,ORAL,11,WEEK 20,140,2014-06-12,2001-10,,,
CDISCPILOT01,CM,01-701-1287,29,1,MULTIVITAMIN,UNCODED,PROPHYLAXIS OR NON-THERAPEUTIC USE,UNCODED,1,TABLET,QD,ORAL,12,WEEK 24,168,2014-07-12,2001-10,,,
CDISCPILOT01,CM,01-701-1287,33,1,MULTIVITAMIN,UNCODED,PROPHYLAXIS OR NON-THERAPEUTIC USE,UNCODED,1,TABLET,QD,ORAL,13,WEEK 26,182,2014-07-26,2001-10,,,
CDISCPILOT01,CM,01-701-1287,2,2,PREMARIN,ESTROGENS CONJUGATED,PROPHYLAXIS OR NON-THERAPEUTIC USE,GENITO URINARY SYSTEM AND SEX HORMONES,0.625,mg,QD,ORAL,1,SCREENING 1,-7,2014-01-17,2013-06-28,,-211,
CDISCPILOT01,CM,01-701-1287,4,2,PREMARIN,ESTROGENS CONJUGATED,PROPHYLAXIS OR NON-THERAPEUTIC USE,GENITO URINARY SYSTEM AND SEX HORMONES,0.625,mg,QD,ORAL,2,SCREENING 2,-1,2014-01-23,2013-06-28,,-211,
CDISCPILOT01,CM,01-701-1287,6,2,PREMARIN,ESTROGENS CONJUGATED,PROPHYLAXIS OR NON-THERAPEUTIC USE,GENITO URINARY SYSTEM AND SEX HORMONES,0.625,mg,QD,ORAL,3,BASELINE,1,2014-01-25,2013-06-28,,-211,
CDISCPILOT01,CM,01-701-1287,8,2,PREMARIN,ESTROGENS CONJUGATED,PROPHYLAXIS OR NON-THERAPEUTIC USE,GENITO URINARY SYSTEM AND SEX HORMONES,0.625,mg,QD,ORAL,4,WEEK 2,14,2014-02-11,2013-06-28,,-211,
CDISCPILOT01,CM,01-701-1287,10,2,PREMARIN,ESTROGENS CONJUGATED,PROPHYLAXIS OR NON-THERAPEUTIC USE,GENITO URINARY SYSTEM AND SEX HORMONES,0.625,mg,QD,ORAL,5,WEEK 4,28,2014-02-20,2013-06-28,,-211,
CDISCPILOT01,CM,01-701-1287,12,2,PREMARIN,ESTROGENS CONJUGATED,PROPHYLAXIS OR NON-THERAPEUTIC USE,GENITO URINARY SYSTEM AND SEX HORMONES,0.625,mg,QD,ORAL,6,AMBUL ECG REMOVAL,30,2014-02-22,2013-06-28,,-211,
CDISCPILOT01,CM,01-701-1287,14,2,PREMARIN,ESTROGENS CONJUGATED,PROPHYLAXIS OR NON-THERAPEUTIC USE,GENITO URINARY SYSTEM AND SEX HORMONES,0.625,mg,QD,ORAL,7,WEEK 6,42,2014-03-06,2013-06-28,,-211,
CDISCPILOT01,CM,01-701-1287,16,2,PREMARIN,ESTROGENS CONJUGATED,PROPHYLAXIS OR NON-THERAPEUTIC USE,GENITO URINARY SYSTEM AND SEX HORMONES,0.625,mg,QD,ORAL,8,WEEK 8,56,2014-03-21,2013-06-28,,-211,
CDISCPILOT01,CM,01-701-1287,19,2,PREMARIN,ESTROGENS CONJUGATED,PROPHYLAXIS OR NON-THERAPEUTIC USE,GENITO URINARY SYSTEM AND SEX HORMONES,0.625,mg,QD,ORAL,9,WEEK 12,84,2014-04-17,2013-06-28,,-211,
CDISCPILOT01,CM,01-701-1287,22,2,PREMARIN,ESTROGENS CONJUGATED,PROPHYLAXIS OR NON-THERAPEUTIC USE,GENITO URINARY SYSTEM AND SEX HORMONES,0.625,mg,QD,ORAL,10,WEEK 16,112,2014-05-15,2013-06-28,,-211,
CDISCPILOT01,CM,01-701-1287,26,2,PREMARIN,ESTROGENS CONJUGATED,PROPHYLAXIS OR NON-THERAPEUTIC USE,GENITO URINARY SYSTEM AND SEX HORMONES,0.625,mg,QD,ORAL,11,WEEK 20,140,2014-06-12,2013-06-28,,-211,
CDISCPILOT01,CM,01-701-1287,30,2,PREMARIN,ESTROGENS CONJUGATED,PROPHYLAXIS OR NON-THERAPEUTIC USE,GENITO URINARY SYSTEM AND SEX HORMONES,0.625,mg,QD,ORAL,12,WEEK 24,168,2014-07-12,2013-06-28,,-211,
CDISCPILOT01,CM,01-701-1287,34,2,PREMARIN,ESTROGENS CONJUGATED,PROPHYLAXIS OR NON-THERAPEUTIC USE,GENITO URINARY SYSTEM AND SEX HORMONES,0.625,mg,QD,ORAL,13,WEEK 26,182,2014-07-26,2013-06-28,,-211,
CDISCPILOT01,CM,01-701-1294,1,1,HISMANAL,UNCODED,,UNCODED,10,mg,PRN,ORAL,1,SCREENING 1,-7,2013-03-17,2012-03,,,
CDISCPILOT01,CM,01-701-1294,4,1,HISMANAL,UNCODED,,UNCODED,10,mg,PRN,ORAL,2,SCREENING 2,-1,2013-03-22,2012-03,,,
CDISCPILOT01,CM,01-701-1294,7,1,HISMANAL,UNCODED,,UNCODED,10,mg,PRN,ORAL,3,BASELINE,1,2013-03-24,2012-03,,,
CDISCPILOT01,CM,01-701-1294,10,1,HISMANAL,UNCODED,,UNCODED,10,mg,PRN,ORAL,4,WEEK 2,14,2013-04-10,2012-03,,,
CDISCPILOT01,CM,01-701-1294,13,1,HISMANAL,UNCODED,,UNCODED,10,mg,PRN,ORAL,5,WEEK 4,28,2013-04-24,2012-03,,,
CDISCPILOT01,CM,01-701-1294,16,1,HISMANAL,UNCODED,,UNCODED,10,mg,PRN,ORAL,6,AMBUL ECG REMOVAL,30,2013-04-26,2012-03,,,
CDISCPILOT01,CM,01-701-1294,19,1,HISMANAL,UNCODED,,UNCODED,10,mg,PRN,ORAL,7,WEEK 6,42,2013-05-08,2012-03,,,
CDISCPILOT01,CM,01-701-1294,22,1,HISMANAL,UNCODED,,UNCODED,10,mg,PRN,ORAL,8,WEEK 8,56,2013-05-22,2012-03,,,
CDISCPILOT01,CM,01-701-1294,25,1,HISMANAL,UNCODED,,UNCODED,10,mg,PRN,ORAL,9,WEEK 12,84,2013-06-14,2012-03,,,
CDISCPILOT01,CM,01-701-1294,29,1,HISMANAL,UNCODED,,UNCODED,10,mg,PRN,ORAL,101,AE FOLLOW-UP,,2013-08-23,2012-03,,,
CDISCPILOT01,CM,01-701-1294,32,1,HISMANAL,UNCODED,,UNCODED,10,mg,PRN,ORAL,201,RETRIEVAL,168,2013-10-08,2012-03,,,
CDISCPILOT01,CM,01-701-1294,28,4,HYDROCORTISONE,HYDROCORTISONE,,"SYSTEMIC HORMONAL PREPARATIONS, EXCL.",1,VIAL,QD,TOPICAL,9,WEEK 12,84,2013-06-14,2013-06-04,2013-06-12,73,81
CDISCPILOT01,CM,01-701-1294,3,2,MULTIVITAMIN,UNCODED,PROPHYLAXIS OR NON-THERAPEUTIC USE,UNCODED,3,TABLET,QD,ORAL,1,SCREENING 1,-7,2013-03-17,2012-12,,,
CDISCPILOT01,CM,01-701-1294,6,2,MULTIVITAMIN,UNCODED,PROPHYLAXIS OR NON-THERAPEUTIC USE,UNCODED,3,TABLET,QD,ORAL,2,SCREENING 2,-1,2013-03-22,2012-12,,,
CDISCPILOT01,CM,01-701-1294,9,2,MULTIVITAMIN,UNCODED,PROPHYLAXIS OR NON-THERAPEUTIC USE,UNCODED,3,TABLET,QD,ORAL,3,BASELINE,1,2013-03-24,2012-12,,,
CDISCPILOT01,CM,01-701-1294,12,2,MULTIVITAMIN,UNCODED,PROPHYLAXIS OR NON-THERAPEUTIC USE,UNCODED,3,TABLET,QD,ORAL,4,WEEK 2,14,2013-04-10,2012-12,,,
CDISCPILOT01,CM,01-701-1294,15,2,MULTIVITAMIN,UNCODED,PROPHYLAXIS OR NON-THERAPEUTIC USE,UNCODED,3,TABLET,QD,ORAL,5,WEEK 4,28,2013-04-24,2012-12,,,
CDISCPILOT01,CM,01-701-1294,18,2,MULTIVITAMIN,UNCODED,PROPHYLAXIS OR NON-THERAPEUTIC USE,UNCODED,3,TABLET,QD,ORAL,6,AMBUL ECG REMOVAL,30,2013-04-26,2012-12,,,
CDISCPILOT01,CM,01-701-1294,21,2,MULTIVITAMIN,UNCODED,PROPHYLAXIS OR NON-THERAPEUTIC USE,UNCODED,3,TABLET,QD,ORAL,7,WEEK 6,42,2013-05-08,2012-12,,,
CDISCPILOT01,CM,01-701-1294,24,2,MULTIVITAMIN,UNCODED,PROPHYLAXIS OR NON-THERAPEUTIC USE,UNCODED,3,TABLET,QD,ORAL,8,WEEK 8,56,2013-05-22,2012-12,,,
CDISCPILOT01,CM,01-701-1294,27,2,MULTIVITAMIN,UNCODED,PROPHYLAXIS OR NON-THERAPEUTIC USE,UNCODED,3,TABLET,QD,ORAL,9,WEEK 12,84,2013-06-14,2012-12,,,
CDISCPILOT01,CM,01-701-1294,31,2,MULTIVITAMIN,UNCODED,PROPHYLAXIS OR NON-THERAPEUTIC USE,UNCODED,3,TABLET,QD,ORAL,101,AE FOLLOW-UP,,2013-08-23,2012-12,,,
CDISCPILOT01,CM,01-701-1294,34,2,MULTIVITAMIN,UNCODED,PROPHYLAXIS OR NON-THERAPEUTIC USE,UNCODED,3,TABLET,QD,ORAL,201,RETRIEVAL,168,2013-10-08,2012-12,,,
CDISCPILOT01,CM,01-701-1294,2,3,NASACORT,UNCODED,,UNCODED,1,PUFF,QD,RESPIRATORY (INHALATION),1,SCREENING 1,-7,2013-03-17,2012-03,,,
CDISCPILOT01,CM,01-701-1294,5,3,NASACORT,UNCODED,,UNCODED,1,PUFF,QD,RESPIRATORY (INHALATION),2,SCREENING 2,-1,2013-03-22,2012-03,,,
CDISCPILOT01,CM,01-701-1294,8,3,NASACORT,UNCODED,,UNCODED,1,PUFF,QD,RESPIRATORY (INHALATION),3,BASELINE,1,2013-03-24,2012-03,,,
CDISCPILOT01,CM,01-701-1294,11,3,NASACORT,UNCODED,,UNCODED,1,PUFF,QD,RESPIRATORY (INHALATION),4,WEEK 2,14,2013-04-10,2012-03,,,
CDISCPILOT01,CM,01-701-1294,14,3,NASACORT,UNCODED,,UNCODED,1,PUFF,QD,RESPIRATORY (INHALATION),5,WEEK 4,28,2013-04-24,2012-03,,,
CDISCPILOT01,CM,01-701-1294,17,3,NASACORT,UNCODED,,UNCODED,1,PUFF,QD,RESPIRATORY (INHALATION),6,AMBUL ECG REMOVAL,30,2013-04-26,2012-03,,,
CDISCPILOT01,CM,01-701-1294,20,3,NASACORT,UNCODED,,UNCODED,1,PUFF,QD,RESPIRATORY (INHALATION),7,WEEK 6,42,2013-05-08,2012-03,,,
CDISCPILOT01,CM,01-701-1294,23,3,NASACORT,UNCODED,,UNCODED,1,PUFF,QD,RESPIRATORY (INHALATION),8,WEEK 8,56,2013-05-22,2012-03,,,
CDISCPILOT01,CM,01-701-1294,26,3,NASACORT,UNCODED,,UNCODED,1,PUFF,QD,RESPIRATORY (INHALATION),9,WEEK 12,84,2013-06-14,2012-03,,,
CDISCPILOT01,CM,01-701-1294,30,3,NASACORT,UNCODED,,UNCODED,1,PUFF,QD,RESPIRATORY (INHALATION),101,AE FOLLOW-UP,,2013-08-23,2012-03,,,
CDISCPILOT01,CM,01-701-1294,33,3,NASACORT,UNCODED,,UNCODED,1,PUFF,QD,RESPIRATORY (INHALATION),201,RETRIEVAL,168,2013-10-08,2012-03,,,
CDISCPILOT01,CM,01-701-1302,1,1,ADVIL,UNCODED,,UNCODED,2,TABLET,PRN,ORAL,1,SCREENING 1,-7,2013-08-20,2010,,,
CDISCPILOT01,CM,01-701-1302,5,1,ADVIL,UNCODED,,UNCODED,2,TABLET,PRN,ORAL,2,SCREENING 2,-1,2013-08-27,2010,,,
CDISCPILOT01,CM,01-701-1302,9,1,ADVIL,UNCODED,,UNCODED,2,TABLET,PRN,ORAL,3,BASELINE,1,2013-08-29,2010,,,
CDISCPILOT01,CM,01-701-1302,13,1,ADVIL,UNCODED,,UNCODED,2,TABLET,PRN,ORAL,4,WEEK 2,14,2013-09-15,2010,,,
CDISCPILOT01,CM,01-701-1302,19,1,ADVIL,UNCODED,,UNCODED,2,TABLET,PRN,ORAL,5,WEEK 4,28,2013-09-24,2010,,,
CDISCPILOT01,CM,01-701-1302,25,1,ADVIL,UNCODED,,UNCODED,2,TABLET,PRN,ORAL,6,AMBUL ECG REMOVAL,30,2013-09-26,2010,,,
CDISCPILOT01,CM,01-701-1302,31,1,ADVIL,UNCODED,,UNCODED,2,TABLET,PRN,ORAL,7,WEEK 6,42,2013-10-08,2010,,,
CDISCPILOT01,CM,01-701-1302,37,1,ADVIL,UNCODED,,UNCODED,2,TABLET,PRN,ORAL,8,WEEK 8,56,2013-10-22,2010,,,
CDISCPILOT01,CM,01-701-1302,41,1,ADVIL,UNCODED,,UNCODED,2,TABLET,PRN,ORAL,9,WEEK 12,84,2013-11-05,2010,,,
CDISCPILOT01,CM,01-701-1302,45,1,ADVIL,UNCODED,,UNCODED,2,TABLET,PRN,ORAL,101,AE FOLLOW-UP,,2013-12-16,2010,,,
CDISCPILOT01,CM,01-701-1302,49,1,ADVIL,UNCODED,,UNCODED,2,TABLET,PRN,ORAL,201,RETRIEVAL,168,2014-02-13,2010,,,
CDISCPILOT01,CM,01-701-1302,3,2,EXCEDRIN,UNCODED,,UNCODED,2,TABLET,PRN,ORAL,1,SCREENING 1,-7,2013-08-20,2011,,,
CDISCPILOT01,CM,01-701-1302,7,2,EXCEDRIN,UNCODED,,UNCODED,2,TABLET,PRN,ORAL,2,SCREENING 2,-1,2013-08-27,2011,,,
CDISCPILOT01,CM,01-701-1302,11,2,EXCEDRIN,UNCODED,,UNCODED,2,TABLET,PRN,ORAL,3,BASELINE,1,2013-08-29,2011,,,
CDISCPILOT01,CM,01-701-1302,15,2,EXCEDRIN,UNCODED,,UNCODED,2,TABLET,PRN,ORAL,4,WEEK 2,14,2013-09-15,2011,,,
CDISCPILOT01,CM,01-701-1302,21,2,EXCEDRIN,UNCODED,,UNCODED,2,TABLET,PRN,ORAL,5,WEEK 4,28,2013-09-24,2011,,,
CDISCPILOT01,CM,01-701-1302,27,2,EXCEDRIN,UNCODED,,UNCODED,2,TABLET,PRN,ORAL,6,AMBUL ECG REMOVAL,30,2013-09-26,2011,,,
CDISCPILOT01,CM,01-701-1302,33,2,EXCEDRIN,UNCODED,,UNCODED,2,TABLET,PRN,ORAL,7,WEEK 6,42,2013-10-08,2011,,,
CDISCPILOT01,CM,01-701-1302,39,2,EXCEDRIN,UNCODED,,UNCODED,2,TABLET,PRN,ORAL,8,WEEK 8,56,2013-10-22,2011,,,
CDISCPILOT01,CM,01-701-1302,43,2,EXCEDRIN,UNCODED,,UNCODED,2,TABLET,PRN,ORAL,9,WEEK 12,84,2013-11-05,2011,,,
CDISCPILOT01,CM,01-701-1302,47,2,EXCEDRIN,UNCODED,,UNCODED,2,TABLET,PRN,ORAL,101,AE FOLLOW-UP,,2013-12-16,2011,,,
CDISCPILOT01,CM,01-701-1302,51,2,EXCEDRIN,UNCODED,,UNCODED,2,TABLET,PRN,ORAL,201,RETRIEVAL,168,2014-02-13,2011,,,
CDISCPILOT01,CM,01-701-1302,4,3,METAMUCIL,UNCODED,,UNCODED,2,Tbsp,QD,ORAL,1,SCREENING 1,-7,2013-08-20,2012-03-01,,-546,
CDISCPILOT01,CM,01-701-1302,8,3,METAMUCIL,UNCODED,,UNCODED,2,Tbsp,QD,ORAL,2,SCREENING 2,-1,2013-08-27,2012-03-01,,-546,
CDISCPILOT01,CM,01-701-1302,12,3,METAMUCIL,UNCODED,,UNCODED,2,Tbsp,QD,ORAL,3,BASELINE,1,2013-08-29,2012-03-01,,-546,
CDISCPILOT01,CM,01-701-1302,16,3,METAMUCIL,UNCODED,,UNCODED,2,Tbsp,QD,ORAL,4,WEEK 2,14,2013-09-15,2012-03-01,,-546,
CDISCPILOT01,CM,01-701-1302,22,3,METAMUCIL,UNCODED,,UNCODED,2,Tbsp,QD,ORAL,5,WEEK 4,28,2013-09-24,2012-03-01,,-546,
CDISCPILOT01,CM,01-701-1302,28,3,METAMUCIL,UNCODED,,UNCODED,2,Tbsp,QD,ORAL,6,AMBUL ECG REMOVAL,30,2013-09-26,2012-03-01,,-546,
CDISCPILOT01,CM,01-701-1302,34,3,METAMUCIL,UNCODED,,UNCODED,2,Tbsp,QD,ORAL,7,WEEK 6,42,2013-10-08,2012-03-01,,-546,
CDISCPILOT01,CM,01-701-1302,40,3,METAMUCIL,UNCODED,,UNCODED,2,Tbsp,QD,ORAL,8,WEEK 8,56,2013-10-22,2012-03-01,,-546,
CDISCPILOT01,CM,01-701-1302,44,3,METAMUCIL,UNCODED,,UNCODED,2,Tbsp,QD,ORAL,9,WEEK 12,84,2013-11-05,2012-03-01,,-546,
CDISCPILOT01,CM,01-701-1302,48,3,METAMUCIL,UNCODED,,UNCODED,2,Tbsp,QD,ORAL,101,AE FOLLOW-UP,,2013-12-16,2012-03-01,,-546,
CDISCPILOT01,CM,01-701-1302,52,3,METAMUCIL,UNCODED,,UNCODED,2,Tbsp,QD,ORAL,201,RETRIEVAL,168,2014-02-13,2012-03-01,,-546,
CDISCPILOT01,CM,01-701-1302,2,4,MULTIVITAMINS,UNCODED,PROPHYLAXIS OR NON-THERAPEUTIC USE,UNCODED,1,TABLET,QD,ORAL,1,SCREENING 1,-7,2013-08-20,2010,,,
CDISCPILOT01,CM,01-701-1302,6,4,MULTIVITAMINS,UNCODED,PROPHYLAXIS OR NON-THERAPEUTIC USE,UNCODED,1,TABLET,QD,ORAL,2,SCREENING 2,-1,2013-08-27,2010,,,
CDISCPILOT01,CM,01-701-1302,10,4,MULTIVITAMINS,UNCODED,PROPHYLAXIS OR NON-THERAPEUTIC USE,UNCODED,1,TABLET,QD,ORAL,3,BASELINE,1,2013-08-29,2010,,,
CDISCPILOT01,CM,01-701-1302,14,4,MULTIVITAMINS,UNCODED,PROPHYLAXIS OR NON-THERAPEUTIC USE,UNCODED,1,TABLET,QD,ORAL,4,WEEK 2,14,2013-09-15,2010,,,
CDISCPILOT01,CM,01-701-1302,20,4,MULTIVITAMINS,UNCODED,PROPHYLAXIS OR NON-THERAPEUTIC USE,UNCODED,1,TABLET,QD,ORAL,5,WEEK 4,28,2013-09-24,2010,,,
CDISCPILOT01,CM,01-701-1302,26,4,MULTIVITAMINS,UNCODED,PROPHYLAXIS OR NON-THERAPEUTIC USE,UNCODED,1,TABLET,QD,ORAL,6,AMBUL ECG REMOVAL,30,2013-09-26,2010,,,
CDISCPILOT01,CM,01-701-1302,32,4,MULTIVITAMINS,UNCODED,PROPHYLAXIS OR NON-THERAPEUTIC USE,UNCODED,1,TABLET,QD,ORAL,7,WEEK 6,42,2013-10-08,2010,,,
CDISCPILOT01,CM,01-701-1302,38,4,MULTIVITAMINS,UNCODED,PROPHYLAXIS OR NON-THERAPEUTIC USE,UNCODED,1,TABLET,QD,ORAL,8,WEEK 8,56,2013-10-22,2010,,,
CDISCPILOT01,CM,01-701-1302,42,4,MULTIVITAMINS,UNCODED,PROPHYLAXIS OR NON-THERAPEUTIC USE,UNCODED,1,TABLET,QD,ORAL,9,WEEK 12,84,2013-11-05,2010,,,
CDISCPILOT01,CM,01-701-1302,46,4,MULTIVITAMINS,UNCODED,PROPHYLAXIS OR NON-THERAPEUTIC USE,UNCODED,1,TABLET,QD,ORAL,101,AE FOLLOW-UP,,2013-12-16,2010,,,
CDISCPILOT01,CM,01-701-1302,50,4,MULTIVITAMINS,UNCODED,PROPHYLAXIS OR NON-THERAPEUTIC USE,UNCODED,1,TABLET,QD,ORAL,201,RETRIEVAL,168,2014-02-13,2010,,,
CDISCPILOT01,CM,01-701-1302,17,5,NEO-SYNEPHRINE,UNCODED,,UNCODED,1,SPRAY,PRN,NASAL,4,WEEK 2,14,2013-09-15,2013-09-01,2013-09-30,4,33
CDISCPILOT01,CM,01-701-1302,23,5,NEO-SYNEPHRINE,UNCODED,,UNCODED,1,SPRAY,PRN,NASAL,5,WEEK 4,28,2013-09-24,2013-09-01,2013-09-30,4,33
CDISCPILOT01,CM,01-701-1302,29,5,NEO-SYNEPHRINE,UNCODED,,UNCODED,1,SPRAY,PRN,NASAL,6,AMBUL ECG REMOVAL,30,2013-09-26,2013-09-01,2013-09-30,4,33
CDISCPILOT01,CM,01-701-1302,35,5,NEO-SYNEPHRINE,UNCODED,,UNCODED,1,SPRAY,PRN,NASAL,7,WEEK 6,42,2013-10-08,2013-09-01,2013-09-30,4,33
CDISCPILOT01,CM,01-701-1302,18,6,PSEUDOEPHEDRINE HYDROCHLORIDE,UNCODED,,UNCODED,2,TABLET,Q4H,ORAL,4,WEEK 2,14,2013-09-15,2013-09-02,2013-09-30,5,33
CDISCPILOT01,CM,01-701-1302,24,6,PSEUDOEPHEDRINE HYDROCHLORIDE,UNCODED,,UNCODED,2,TABLET,Q4H,ORAL,5,WEEK 4,28,2013-09-24,2013-09-02,2013-09-30,5,33
CDISCPILOT01,CM,01-701-1302,30,6,PSEUDOEPHEDRINE HYDROCHLORIDE,UNCODED,,UNCODED,2,TABLET,Q4H,ORAL,6,AMBUL ECG REMOVAL,30,2013-09-26,2013-09-02,2013-09-30,5,33
CDISCPILOT01,CM,01-701-1302,36,6,PSEUDOEPHEDRINE HYDROCHLORIDE,UNCODED,,UNCODED,2,TABLET,Q4H,ORAL,7,WEEK 6,42,2013-10-08,2013-09-02,2013-09-30,5,33
CDISCPILOT01,CM,01-701-1317,4,1,ASPIRIN,ACETYLSALICYLIC ACID,PROPHYLAXIS OR NON-THERAPEUTIC USE,NERVOUS SYSTEM,1,TABLET,QD,ORAL,1,SCREENING 1,-7,2014-05-10,2013,,,
CDISCPILOT01,CM,01-701-1317,10,1,ASPIRIN,ACETYLSALICYLIC ACID,PROPHYLAXIS OR NON-THERAPEUTIC USE,NERVOUS SYSTEM,1,TABLET,QD,ORAL,2,SCREENING 2,-1,2014-05-20,2013,,,
CDISCPILOT01,CM,01-701-1317,16,1,ASPIRIN,ACETYLSALICYLIC ACID,PROPHYLAXIS OR NON-THERAPEUTIC USE,NERVOUS SYSTEM,1,TABLET,QD,ORAL,3,BASELINE,1,2014-05-22,2013,,,
CDISCPILOT01,CM,01-701-1317,22,1,ASPIRIN,ACETYLSALICYLIC ACID,PROPHYLAXIS OR NON-THERAPEUTIC USE,NERVOUS SYSTEM,1,TABLET,QD,ORAL,4,WEEK 2,14,2014-06-05,2013,,,
CDISCPILOT01,CM,01-701-1317,28,1,ASPIRIN,ACETYLSALICYLIC ACID,PROPHYLAXIS OR NON-THERAPEUTIC USE,NERVOUS SYSTEM,1,TABLET,QD,ORAL,5,WEEK 4,28,2014-06-19,2013,,,
CDISCPILOT01,CM,01-701-1317,34,1,ASPIRIN,ACETYLSALICYLIC ACID,PROPHYLAXIS OR NON-THERAPEUTIC USE,NERVOUS SYSTEM,1,TABLET,QD,ORAL,6,AMBUL ECG REMOVAL,30,2014-06-21,2013,,,
CDISCPILOT01,CM,01-701-1317,40,1,ASPIRIN,ACETYLSALICYLIC ACID,PROPHYLAXIS OR NON-THERAPEUTIC USE,NERVOUS SYSTEM,1,TABLET,QD,ORAL,7,WEEK 6,42,2014-07-03,2013,,,
CDISCPILOT01,CM,01-701-1317,47,1,ASPIRIN,ACETYLSALICYLIC ACID,PROPHYLAXIS OR NON-THERAPEUTIC USE,NERVOUS SYSTEM,1,TABLET,QD,ORAL,8,WEEK 8,56,2014-07-22,2013,,,
CDISCPILOT01,CM,01-701-1317,54,1,ASPIRIN,ACETYLSALICYLIC ACID,PROPHYLAXIS OR NON-THERAPEUTIC USE,NERVOUS SYSTEM,1,TABLET,QD,ORAL,9,WEEK 12,84,2014-08-15,2013,,,
CDISCPILOT01,CM,01-701-1317,61,1,ASPIRIN,ACETYLSALICYLIC ACID,PROPHYLAXIS OR NON-THERAPEUTIC USE,NERVOUS SYSTEM,1,TABLET,QD,ORAL,10,WEEK 16,112,2014-09-11,2013,,,
CDISCPILOT01,CM,01-701-1317,68,1,ASPIRIN,ACETYLSALICYLIC ACID,PROPHYLAXIS OR NON-THERAPEUTIC USE,NERVOUS SYSTEM,1,TABLET,QD,ORAL,11,WEEK 20,140,2014-10-09,2013,,,
CDISCPILOT01,CM,01-701-1317,75,1,ASPIRIN,ACETYLSALICYLIC ACID,PROPHYLAXIS OR NON-THERAPEUTIC USE,NERVOUS SYSTEM,1,TABLET,QD,ORAL,12,WEEK 24,168,2014-11-06,2013,,,
CDISCPILOT01,CM,01-701-1317,82,1,ASPIRIN,ACETYLSALICYLIC ACID,PROPHYLAXIS OR NON-THERAPEUTIC USE,NERVOUS SYSTEM,1,TABLET,QD,ORAL,13,WEEK 26,182,2014-11-20,2013,,,
CDISCPILOT01,CM,01-701-1317,5,2,FOLIC ACID,UNCODED,PROPHYLAXIS OR NON-THERAPEUTIC USE,UNCODED,1,TABLET,QD,ORAL,1,SCREENING 1,-7,2014-05-10,2013,,,
CDISCPILOT01,CM,01-701-1317,11,2,FOLIC ACID,UNCODED,PROPHYLAXIS OR NON-THERAPEUTIC USE,UNCODED,1,TABLET,QD,ORAL,2,SCREENING 2,-1,2014-05-20,2013,,,
CDISCPILOT01,CM,01-701-1317,17,2,FOLIC ACID,UNCODED,PROPHYLAXIS OR NON-THERAPEUTIC USE,UNCODED,1,TABLET,QD,ORAL,3,BASELINE,1,2014-05-22,2013,,,
CDISCPILOT01,CM,01-701-1317,23,2,FOLIC ACID,UNCODED,PROPHYLAXIS OR NON-THERAPEUTIC USE,UNCODED,1,TABLET,QD,ORAL,4,WEEK 2,14,2014-06-05,2013,,,
CDISCPILOT01,CM,01-701-1317,29,2,FOLIC ACID,UNCODED,PROPHYLAXIS OR NON-THERAPEUTIC USE,UNCODED,1,TABLET,QD,ORAL,5,WEEK 4,28,2014-06-19,2013,,,
CDISCPILOT01,CM,01-701-1317,35,2,FOLIC ACID,UNCODED,PROPHYLAXIS OR NON-THERAPEUTIC USE,UNCODED,1,TABLET,QD,ORAL,6,AMBUL ECG REMOVAL,30,2014-06-21,2013,,,
CDISCPILOT01,CM,01-701-1317,41,2,FOLIC ACID,UNCODED,PROPHYLAXIS OR NON-THERAPEUTIC USE,UNCODED,1,TABLET,QD,ORAL,7,WEEK 6,42,2014-07-03,2013,,,
CDISCPILOT01,CM,01-701-1317,48,2,FOLIC ACID,UNCODED,PROPHYLAXIS OR NON-THERAPEUTIC USE,UNCODED,1,TABLET,QD,ORAL,8,WEEK 8,56,2014-07-22,2013,,,
CDISCPILOT01,CM,01-701-1317,55,2,FOLIC ACID,UNCODED,PROPHYLAXIS OR NON-THERAPEUTIC USE,UNCODED,1,TABLET,QD,ORAL,9,WEEK 12,84,2014-08-15,2013,,,
CDISCPILOT01,CM,01-701-1317,62,2,FOLIC ACID,UNCODED,PROPHYLAXIS OR NON-THERAPEUTIC USE,UNCODED,1,TABLET,QD,ORAL,10,WEEK 16,112,2014-09-11,2013,,,
CDISCPILOT01,CM,01-701-1317,69,2,FOLIC ACID,UNCODED,PROPHYLAXIS OR NON-THERAPEUTIC USE,UNCODED,1,TABLET,QD,ORAL,11,WEEK 20,140,2014-10-09,2013,,,
CDISCPILOT01,CM,01-701-1317,76,2,FOLIC ACID,UNCODED,PROPHYLAXIS OR NON-THERAPEUTIC USE,UNCODED,1,TABLET,QD,ORAL,12,WEEK 24,168,2014-11-06,2013,,,
CDISCPILOT01,CM,01-701-1317,83,2,FOLIC ACID,UNCODED,PROPHYLAXIS OR NON-THERAPEUTIC USE,UNCODED,1,TABLET,QD,ORAL,13,WEEK 26,182,2014-11-20,2013,,,
CDISCPILOT01,CM,01-701-1317,43,7,HYDROCORTISONE,HYDROCORTISONE,,"SYSTEMIC HORMONAL PREPARATIONS, EXCL.",1,VIAL,PRN,TOPICAL,7,WEEK 6,42,2014-07-03,2014-07-03,,43,
CDISCPILOT01,CM,01-701-1317,50,7,HYDROCORTISONE,HYDROCORTISONE,,"SYSTEMIC HORMONAL PREPARATIONS, EXCL.",1,VIAL,PRN,TOPICAL,8,WEEK 8,56,2014-07-22,2014-07-03,,43,
CDISCPILOT01,CM,01-701-1317,57,7,HYDROCORTISONE,HYDROCORTISONE,,"SYSTEMIC HORMONAL PREPARATIONS, EXCL.",1,VIAL,PRN,TOPICAL,9,WEEK 12,84,2014-08-15,2014-07-03,,43,
CDISCPILOT01,CM,01-701-1317,64,7,HYDROCORTISONE,HYDROCORTISONE,,"SYSTEMIC HORMONAL PREPARATIONS, EXCL.",1,VIAL,PRN,TOPICAL,10,WEEK 16,112,2014-09-11,2014-07-03,,43,
CDISCPILOT01,CM,01-701-1317,71,7,HYDROCORTISONE,HYDROCORTISONE,,"SYSTEMIC HORMONAL PREPARATIONS, EXCL.",1,VIAL,PRN,TOPICAL,11,WEEK 20,140,2014-10-09,2014-07-03,,43,
CDISCPILOT01,CM,01-701-1317,78,7,HYDROCORTISONE,HYDROCORTISONE,,"SYSTEMIC HORMONAL PREPARATIONS, EXCL.",1,VIAL,PRN,TOPICAL,12,WEEK 24,168,2014-11-06,2014-07-03,,43,
CDISCPILOT01,CM,01-701-1317,85,7,HYDROCORTISONE,HYDROCORTISONE,,"SYSTEMIC HORMONAL PREPARATIONS, EXCL.",1,VIAL,PRN,TOPICAL,13,WEEK 26,182,2014-11-20,2014-07-03,,43,
CDISCPILOT01,CM,01-701-1317,1,3,MULTIVITAMIN,UNCODED,PROPHYLAXIS OR NON-THERAPEUTIC USE,UNCODED,1,TABLET,QD,ORAL,1,SCREENING 1,-7,2014-05-10,2009,,,
CDISCPILOT01,CM,01-701-1317,7,3,MULTIVITAMIN,UNCODED,PROPHYLAXIS OR NON-THERAPEUTIC USE,UNCODED,1,TABLET,QD,ORAL,2,SCREENING 2,-1,2014-05-20,2009,,,
CDISCPILOT01,CM,01-701-1317,13,3,MULTIVITAMIN,UNCODED,PROPHYLAXIS OR NON-THERAPEUTIC USE,UNCODED,1,TABLET,QD,ORAL,3,BASELINE,1,2014-05-22,2009,,,
CDISCPILOT01,CM,01-701-1317,19,3,MULTIVITAMIN,UNCODED,PROPHYLAXIS OR NON-THERAPEUTIC USE,UNCODED,1,TABLET,QD,ORAL,4,WEEK 2,14,2014-06-05,2009,,,
CDISCPILOT01,CM,01-701-1317,25,3,MULTIVITAMIN,UNCODED,PROPHYLAXIS OR NON-THERAPEUTIC USE,UNCODED,1,TABLET,QD,ORAL,5,WEEK 4,28,2014-06-19,2009,,,
CDISCPILOT01,CM,01-701-1317,31,3,MULTIVITAMIN,UNCODED,PROPHYLAXIS OR NON-THERAPEUTIC USE,UNCODED,1,TABLET,QD,ORAL,6,AMBUL ECG REMOVAL,30,2014-06-21,2009,,,
CDISCPILOT01,CM,01-701-1317,37,3,MULTIVITAMIN,UNCODED,PROPHYLAXIS OR NON-THERAPEUTIC USE,UNCODED,1,TABLET,QD,ORAL,7,WEEK 6,42,2014-07-03,2009,,,
CDISCPILOT01,CM,01-701-1317,44,3,MULTIVITAMIN,UNCODED,PROPHYLAXIS OR NON-THERAPEUTIC USE,UNCODED,1,TABLET,QD,ORAL,8,WEEK 8,56,2014-07-22,2009,,,
CDISCPILOT01,CM,01-701-1317,51,3,MULTIVITAMIN,UNCODED,PROPHYLAXIS OR NON-THERAPEUTIC USE,UNCODED,1,TABLET,QD,ORAL,9,WEEK 12,84,2014-08-15,2009,,,
CDISCPILOT01,CM,01-701-1317,58,3,MULTIVITAMIN,UNCODED,PROPHYLAXIS OR NON-THERAPEUTIC USE,UNCODED,1,TABLET,QD,ORAL,10,WEEK 16,112,2014-09-11,2009,,,
CDISCPILOT01,CM,01-701-1317,65,3,MULTIVITAMIN,UNCODED,PROPHYLAXIS OR NON-THERAPEUTIC USE,UNCODED,1,TABLET,QD,ORAL,11,WEEK 20,140,2014-10-09,2009,,,
CDISCPILOT01,CM,01-701-1317,72,3,MULTIVITAMIN,UNCODED,PROPHYLAXIS OR NON-THERAPEUTIC USE,UNCODED,1,TABLET,QD,ORAL,12,WEEK 24,168,2014-11-06,2009,,,
CDISCPILOT01,CM,01-701-1317,79,3,MULTIVITAMIN,UNCODED,PROPHYLAXIS OR NON-THERAPEUTIC USE,UNCODED,1,TABLET,QD,ORAL,13,WEEK 26,182,2014-11-20,2009,,,
CDISCPILOT01,CM,01-701-1317,6,4,PSYLLIUM HYDROPHILIC MUCILLOID,UNCODED,PROPHYLAXIS OR NON-THERAPEUTIC USE,UNCODED,1,TABLET,QD,ORAL,1,SCREENING 1,-7,2014-05-10,2014-04,,,
CDISCPILOT01,CM,01-701-1317,12,4,PSYLLIUM HYDROPHILIC MUCILLOID,UNCODED,PROPHYLAXIS OR NON-THERAPEUTIC USE,UNCODED,1,TABLET,QD,ORAL,2,SCREENING 2,-1,2014-05-20,2014-04,,,
CDISCPILOT01,CM,01-701-1317,18,4,PSYLLIUM HYDROPHILIC MUCILLOID,UNCODED,PROPHYLAXIS OR NON-THERAPEUTIC USE,UNCODED,1,TABLET,QD,ORAL,3,BASELINE,1,2014-05-22,2014-04,,,
CDISCPILOT01,CM,01-701-1317,24,4,PSYLLIUM HYDROPHILIC MUCILLOID,UNCODED,PROPHYLAXIS OR NON-THERAPEUTIC USE,UNCODED,1,TABLET,QD,ORAL,4,WEEK 2,14,2014-06-05,2014-04,,,
CDISCPILOT01,CM,01-701-1317,30,4,PSYLLIUM HYDROPHILIC MUCILLOID,UNCODED,PROPHYLAXIS OR NON-THERAPEUTIC USE,UNCODED,1,TABLET,QD,ORAL,5,WEEK 4,28,2014-06-19,2014-04,,,
CDISCPILOT01,CM,01-701-1317,36,4,PSYLLIUM HYDROPHILIC MUCILLOID,UNCODED,PROPHYLAXIS OR NON-THERAPEUTIC USE,UNCODED,1,TABLET,QD,ORAL,6,AMBUL ECG REMOVAL,30,2014-06-21,2014-04,,,
CDISCPILOT01,CM,01-701-1317,42,4,PSYLLIUM HYDROPHILIC MUCILLOID,UNCODED,PROPHYLAXIS OR NON-THERAPEUTIC USE,UNCODED,1,TABLET,QD,ORAL,7,WEEK 6,42,2014-07-03,2014-04,,,
CDISCPILOT01,CM,01-701-1317,49,4,PSYLLIUM HYDROPHILIC MUCILLOID,UNCODED,PROPHYLAXIS OR NON-THERAPEUTIC USE,UNCODED,1,TABLET,QD,ORAL,8,WEEK 8,56,2014-07-22,2014-04,,,
CDISCPILOT01,CM,01-701-1317,56,4,PSYLLIUM HYDROPHILIC MUCILLOID,UNCODED,PROPHYLAXIS OR NON-THERAPEUTIC USE,UNCODED,1,TABLET,QD,ORAL,9,WEEK 12,84,2014-08-15,2014-04,,,
CDISCPILOT01,CM,01-701-1317,63,4,PSYLLIUM HYDROPHILIC MUCILLOID,UNCODED,PROPHYLAXIS OR NON-THERAPEUTIC USE,UNCODED,1,TABLET,QD,ORAL,10,WEEK 16,112,2014-09-11,2014-04,,,
CDISCPILOT01,CM,01-701-1317,70,4,PSYLLIUM HYDROPHILIC MUCILLOID,UNCODED,PROPHYLAXIS OR NON-THERAPEUTIC USE,UNCODED,1,TABLET,QD,ORAL,11,WEEK 20,140,2014-10-09,2014-04,,,
CDISCPILOT01,CM,01-701-1317,77,4,PSYLLIUM HYDROPHILIC MUCILLOID,UNCODED,PROPHYLAXIS OR NON-THERAPEUTIC USE,UNCODED,1,TABLET,QD,ORAL,12,WEEK 24,168,2014-11-06,2014-04,,,
CDISCPILOT01,CM,01-701-1317,84,4,PSYLLIUM HYDROPHILIC MUCILLOID,UNCODED,PROPHYLAXIS OR NON-THERAPEUTIC USE,UNCODED,1,TABLET,QD,ORAL,13,WEEK 26,182,2014-11-20,2014-04,,,
CDISCPILOT01,CM,01-701-1317,3,5,TUMS,UNCODED,,UNCODED,1,TABLET,PRN,ORAL,1,SCREENING 1,-7,2014-05-10,2012,,,
CDISCPILOT01,CM,01-701-1317,9,5,TUMS,UNCODED,,UNCODED,1,TABLET,PRN,ORAL,2,SCREENING 2,-1,2014-05-20,2012,,,
CDISCPILOT01,CM,01-701-1317,15,5,TUMS,UNCODED,,UNCODED,1,TABLET,PRN,ORAL,3,BASELINE,1,2014-05-22,2012,,,
CDISCPILOT01,CM,01-701-1317,21,5,TUMS,UNCODED,,UNCODED,1,TABLET,PRN,ORAL,4,WEEK 2,14,2014-06-05,2012,,,
CDISCPILOT01,CM,01-701-1317,27,5,TUMS,UNCODED,,UNCODED,1,TABLET,PRN,ORAL,5,WEEK 4,28,2014-06-19,2012,,,
CDISCPILOT01,CM,01-701-1317,33,5,TUMS,UNCODED,,UNCODED,1,TABLET,PRN,ORAL,6,AMBUL ECG REMOVAL,30,2014-06-21,2012,,,
CDISCPILOT01,CM,01-701-1317,39,5,TUMS,UNCODED,,UNCODED,1,TABLET,PRN,ORAL,7,WEEK 6,42,2014-07-03,2012,,,
CDISCPILOT01,CM,01-701-1317,46,5,TUMS,UNCODED,,UNCODED,1,TABLET,PRN,ORAL,8,WEEK 8,56,2014-07-22,2012,,,
CDISCPILOT01,CM,01-701-1317,53,5,TUMS,UNCODED,,UNCODED,1,TABLET,PRN,ORAL,9,WEEK 12,84,2014-08-15,2012,,,
CDISCPILOT01,CM,01-701-1317,60,5,TUMS,UNCODED,,UNCODED,1,TABLET,PRN,ORAL,10,WEEK 16,112,2014-09-11,2012,,,
CDISCPILOT01,CM,01-701-1317,67,5,TUMS,UNCODED,,UNCODED,1,TABLET,PRN,ORAL,11,WEEK 20,140,2014-10-09,2012,,,
CDISCPILOT01,CM,01-701-1317,74,5,TUMS,UNCODED,,UNCODED,1,TABLET,PRN,ORAL,12,WEEK 24,168,2014-11-06,2012,,,
CDISCPILOT01,CM,01-701-1317,81,5,TUMS,UNCODED,,UNCODED,1,TABLET,PRN,ORAL,13,WEEK 26,182,2014-11-20,2012,,,
CDISCPILOT01,CM,01-701-1317,2,6,VITAMIN E,UNCODED,PROPHYLAXIS OR NON-THERAPEUTIC USE,UNCODED,400,IU,QD,ORAL,1,SCREENING 1,-7,2014-05-10,2009,,,
CDISCPILOT01,CM,01-701-1317,8,6,VITAMIN E,UNCODED,PROPHYLAXIS OR NON-THERAPEUTIC USE,UNCODED,400,IU,QD,ORAL,2,SCREENING 2,-1,2014-05-20,2009,,,
CDISCPILOT01,CM,01-701-1317,14,6,VITAMIN E,UNCODED,PROPHYLAXIS OR NON-THERAPEUTIC USE,UNCODED,400,IU,QD,ORAL,3,BASELINE,1,2014-05-22,2009,,,
CDISCPILOT01,CM,01-701-1317,20,6,VITAMIN E,UNCODED,PROPHYLAXIS OR NON-THERAPEUTIC USE,UNCODED,400,IU,QD,ORAL,4,WEEK 2,14,2014-06-05,2009,,,
CDISCPILOT01,CM,01-701-1317,26,6,VITAMIN E,UNCODED,PROPHYLAXIS OR NON-THERAPEUTIC USE,UNCODED,400,IU,QD,ORAL,5,WEEK 4,28,2014-06-19,2009,,,
CDISCPILOT01,CM,01-701-1317,32,6,VITAMIN E,UNCODED,PROPHYLAXIS OR NON-THERAPEUTIC USE,UNCODED,400,IU,QD,ORAL,6,AMBUL ECG REMOVAL,30,2014-06-21,2009,,,
CDISCPILOT01,CM,01-701-1317,38,6,VITAMIN E,UNCODED,PROPHYLAXIS OR NON-THERAPEUTIC USE,UNCODED,400,IU,QD,ORAL,7,WEEK 6,42,2014-07-03,2009,,,
CDISCPILOT01,CM,01-701-1317,45,6,VITAMIN E,UNCODED,PROPHYLAXIS OR NON-THERAPEUTIC USE,UNCODED,400,IU,QD,ORAL,8,WEEK 8,56,2014-07-22,2009,,,
CDISCPILOT01,CM,01-701-1317,52,6,VITAMIN E,UNCODED,PROPHYLAXIS OR NON-THERAPEUTIC USE,UNCODED,400,IU,QD,ORAL,9,WEEK 12,84,2014-08-15,2009,,,
CDISCPILOT01,CM,01-701-1317,59,6,VITAMIN E,UNCODED,PROPHYLAXIS OR NON-THERAPEUTIC USE,UNCODED,400,IU,QD,ORAL,10,WEEK 16,112,2014-09-11,2009,,,
CDISCPILOT01,CM,01-701-1317,66,6,VITAMIN E,UNCODED,PROPHYLAXIS OR NON-THERAPEUTIC USE,UNCODED,400,IU,QD,ORAL,11,WEEK 20,140,2014-10-09,2009,,,
CDISCPILOT01,CM,01-701-1317,73,6,VITAMIN E,UNCODED,PROPHYLAXIS OR NON-THERAPEUTIC USE,UNCODED,400,IU,QD,ORAL,12,WEEK 24,168,2014-11-06,2009,,,
CDISCPILOT01,CM,01-701-1317,80,6,VITAMIN E,UNCODED,PROPHYLAXIS OR NON-THERAPEUTIC USE,UNCODED,400,IU,QD,ORAL,13,WEEK 26,182,2014-11-20,2009,,,
CDISCPILOT01,CM,01-701-1324,1,1,HYDROCORTISONE,HYDROCORTISONE,,"SYSTEMIC HORMONAL PREPARATIONS, EXCL.",1,VIAL,QD,TOPICAL,10,WEEK 16,112,2013-01-22,2012-12-26,2012-12-30,86,90
CDISCPILOT01,CM,01-701-1324,2,2,HYDROCORTISONE,HYDROCORTISONE,,"SYSTEMIC HORMONAL PREPARATIONS, EXCL.",1,VIAL,QD,TOPICAL,10,WEEK 16,112,2013-01-22,2013-01-11,2013-01-15,102,106
CDISCPILOT01,CM,01-701-1324,3,3,HYDROCORTISONE,HYDROCORTISONE,,"SYSTEMIC HORMONAL PREPARATIONS, EXCL.",1,VIAL,PRN,TOPICAL,12,WEEK 24,168,2013-03-19,2013-02-21,,143,
CDISCPILOT01,CM,01-701-1324,4,3,HYDROCORTISONE,HYDROCORTISONE,,"SYSTEMIC HORMONAL PREPARATIONS, EXCL.",1,VIAL,PRN,TOPICAL,13,WEEK 26,182,2013-04-02,2013-02-21,,143,
CDISCPILOT01,CM,01-701-1341,6,2,HYDROCORTISONE,HYDROCORTISONE,,"SYSTEMIC HORMONAL PREPARATIONS, EXCL.",1,VIAL,PRN,TOPICAL,5,WEEK 4,28,2013-02-07,2013-01-26,2013-01-30,22,26
CDISCPILOT01,CM,01-701-1341,1,1,MULTIVITAMIN,UNCODED,PROPHYLAXIS OR NON-THERAPEUTIC USE,UNCODED,,TABLET,QD,ORAL,1,SCREENING 1,-7,2012-12-22,1971,,,
CDISCPILOT01,CM,01-701-1341,2,1,MULTIVITAMIN,UNCODED,PROPHYLAXIS OR NON-THERAPEUTIC USE,UNCODED,,TABLET,QD,ORAL,2,SCREENING 2,-1,2013-01-03,1971,,,
CDISCPILOT01,CM,01-701-1341,3,1,MULTIVITAMIN,UNCODED,PROPHYLAXIS OR NON-THERAPEUTIC USE,UNCODED,,TABLET,QD,ORAL,3,BASELINE,1,2013-01-05,1971,,,
CDISCPILOT01,CM,01-701-1341,4,1,MULTIVITAMIN,UNCODED,PROPHYLAXIS OR NON-THERAPEUTIC USE,UNCODED,,TABLET,QD,ORAL,4,WEEK 2,14,2013-01-18,1971,,,
CDISCPILOT01,CM,01-701-1341,5,1,MULTIVITAMIN,UNCODED,PROPHYLAXIS OR NON-THERAPEUTIC USE,UNCODED,,TABLET,QD,ORAL,5,WEEK 4,28,2013-02-07,1971,,,
CDISCPILOT01,CM,01-701-1341,7,1,MULTIVITAMIN,UNCODED,PROPHYLAXIS OR NON-THERAPEUTIC USE,UNCODED,,TABLET,QD,ORAL,101,AE FOLLOW-UP,,2013-02-21,1971,,,
CDISCPILOT01,CM,01-701-1345,1,1,VITAMIN C,UNCODED,PROPHYLAXIS OR NON-THERAPEUTIC USE,UNCODED,500,mg,QD,ORAL,1,SCREENING 1,-7,2013-10-01,1983,,,
CDISCPILOT01,CM,01-701-1345,3,1,VITAMIN C,UNCODED,PROPHYLAXIS OR NON-THERAPEUTIC USE,UNCODED,500,mg,QD,ORAL,2,SCREENING 2,-1,2013-10-06,1983,,,
CDISCPILOT01,CM,01-701-1345,5,1,VITAMIN C,UNCODED,PROPHYLAXIS OR NON-THERAPEUTIC USE,UNCODED,500,mg,QD,ORAL,3,BASELINE,1,2013-10-08,1983,,,
CDISCPILOT01,CM,01-701-1345,7,1,VITAMIN C,UNCODED,PROPHYLAXIS OR NON-THERAPEUTIC USE,UNCODED,500,mg,QD,ORAL,4,WEEK 2,14,2013-10-24,1983,,,
CDISCPILOT01,CM,01-701-1345,9,1,VITAMIN C,UNCODED,PROPHYLAXIS OR NON-THERAPEUTIC USE,UNCODED,500,mg,QD,ORAL,5,WEEK 4,28,2013-11-08,1983,,,
CDISCPILOT01,CM,01-701-1345,11,1,VITAMIN C,UNCODED,PROPHYLAXIS OR NON-THERAPEUTIC USE,UNCODED,500,mg,QD,ORAL,6,AMBUL ECG REMOVAL,30,2013-11-10,1983,,,
CDISCPILOT01,CM,01-701-1345,13,1,VITAMIN C,UNCODED,PROPHYLAXIS OR NON-THERAPEUTIC USE,UNCODED,500,mg,QD,ORAL,7,WEEK 6,42,2013-11-19,1983,,,
CDISCPILOT01,CM,01-701-1345,15,1,VITAMIN C,UNCODED,PROPHYLAXIS OR NON-THERAPEUTIC USE,UNCODED,500,mg,QD,ORAL,8,WEEK 8,56,2013-12-03,1983,,,
CDISCPILOT01,CM,01-701-1345,17,1,VITAMIN C,UNCODED,PROPHYLAXIS OR NON-THERAPEUTIC USE,UNCODED,500,mg,QD,ORAL,9,WEEK 12,84,2013-12-31,1983,,,
CDISCPILOT01,CM,01-701-1345,19,1,VITAMIN C,UNCODED,PROPHYLAXIS OR NON-THERAPEUTIC USE,UNCODED,500,mg,QD,ORAL,10,WEEK 16,112,2014-01-27,1983,,,
CDISCPILOT01,CM,01-701-1345,21,1,VITAMIN C,UNCODED,PROPHYLAXIS OR NON-THERAPEUTIC USE,UNCODED,500,mg,QD,ORAL,11,WEEK 20,140,2014-02-25,1983,,,
CDISCPILOT01,CM,01-701-1345,23,1,VITAMIN C,UNCODED,PROPHYLAXIS OR NON-THERAPEUTIC USE,UNCODED,500,mg,QD,ORAL,12,WEEK 24,168,2014-03-18,1983,,,
CDISCPILOT01,CM,01-701-1345,2,2,VITAMIN E,UNCODED,PROPHYLAXIS OR NON-THERAPEUTIC USE,UNCODED,400,IU,QD,ORAL,1,SCREENING 1,-7,2013-10-01,1983,,,
CDISCPILOT01,CM,01-701-1345,4,2,VITAMIN E,UNCODED,PROPHYLAXIS OR NON-THERAPEUTIC USE,UNCODED,400,IU,QD,ORAL,2,SCREENING 2,-1,2013-10-06,1983,,,
CDISCPILOT01,CM,01-701-1345,6,2,VITAMIN E,UNCODED,PROPHYLAXIS OR NON-THERAPEUTIC USE,UNCODED,400,IU,QD,ORAL,3,BASELINE,1,2013-10-08,1983,,,
CDISCPILOT01,CM,01-701-1345,8,2,VITAMIN E,UNCODED,PROPHYLAXIS OR NON-THERAPEUTIC USE,UNCODED,400,IU,QD,ORAL,4,WEEK 2,14,2013-10-24,1983,,,
CDISCPILOT01,CM,01-701-1345,10,2,VITAMIN E,UNCODED,PROPHYLAXIS OR NON-THERAPEUTIC USE,UNCODED,400,IU,QD,ORAL,5,WEEK 4,28,2013-11-08,1983,,,
CDISCPILOT01,CM,01-701-1345,12,2,VITAMIN E,UNCODED,PROPHYLAXIS OR NON-THERAPEUTIC USE,UNCODED,400,IU,QD,ORAL,6,AMBUL ECG REMOVAL,30,2013-11-10,1983,,,
CDISCPILOT01,CM,01-701-1345,14,2,VITAMIN E,UNCODED,PROPHYLAXIS OR NON-THERAPEUTIC USE,UNCODED,400,IU,QD,ORAL,7,WEEK 6,42,2013-11-19,1983,,,
CDISCPILOT01,CM,01-701-1345,16,2,VITAMIN E,UNCODED,PROPHYLAXIS OR NON-THERAPEUTIC USE,UNCODED,400,IU,QD,ORAL,8,WEEK 8,56,2013-12-03,1983,,,
CDISCPILOT01,CM,01-701-1345,18,2,VITAMIN E,UNCODED,PROPHYLAXIS OR NON-THERAPEUTIC USE,UNCODED,400,IU,QD,ORAL,9,WEEK 12,84,2013-12-31,1983,,,
CDISCPILOT01,CM,01-701-1345,20,2,VITAMIN E,UNCODED,PROPHYLAXIS OR NON-THERAPEUTIC USE,UNCODED,400,IU,QD,ORAL,10,WEEK 16,112,2014-01-27,1983,,,
CDISCPILOT01,CM,01-701-1345,22,2,VITAMIN E,UNCODED,PROPHYLAXIS OR NON-THERAPEUTIC USE,UNCODED,400,IU,QD,ORAL,11,WEEK 20,140,2014-02-25,1983,,,
CDISCPILOT01,CM,01-701-1345,24,2,VITAMIN E,UNCODED,PROPHYLAXIS OR NON-THERAPEUTIC USE,UNCODED,400,IU,QD,ORAL,12,WEEK 24,168,2014-03-18,1983,,,
CDISCPILOT01,CM,01-701-1360,1,1,DIPROLENE CREAM,UNCODED,,UNCODED,1,VIAL,QD,TOPICAL,1,SCREENING 1,-7,2013-07-24,1986,,,
CDISCPILOT01,CM,01-701-1360,3,1,DIPROLENE CREAM,UNCODED,,UNCODED,1,VIAL,QD,TOPICAL,2,SCREENING 2,-1,2013-07-29,1986,,,
CDISCPILOT01,CM,01-701-1360,5,1,DIPROLENE CREAM,UNCODED,,UNCODED,1,VIAL,QD,TOPICAL,3,BASELINE,1,2013-07-31,1986,,,
CDISCPILOT01,CM,01-701-1360,7,1,DIPROLENE CREAM,UNCODED,,UNCODED,1,VIAL,QD,TOPICAL,4,WEEK 2,14,2013-08-14,1986,,,
CDISCPILOT01,CM,01-701-1360,10,1,DIPROLENE CREAM,UNCODED,,UNCODED,1,VIAL,QD,TOPICAL,101,AE FOLLOW-UP,,2013-09-09,1986,,,
CDISCPILOT01,CM,01-701-1360,14,1,DIPROLENE CREAM,UNCODED,,UNCODED,1,VIAL,QD,TOPICAL,201,RETRIEVAL,168,2014-02-11,1986,,,
CDISCPILOT01,CM,01-701-1360,12,4,GENERAL ANESTHESIA,UNCODED,PROPHYLAXIS OR NON-THERAPEUTIC USE,UNCODED,,,ONCE,INTRAVENOUS,101,AE FOLLOW-UP,,2013-09-09,2013-08-27,2013-08-27,28,28
CDISCPILOT01,CM,01-701-1360,13,5,HYDROCODONE,UNCODED,PROPHYLAXIS OR NON-THERAPEUTIC USE,UNCODED,1,TABLET,Q3H,ORAL,101,AE FOLLOW-UP,,2013-09-09,2013-08-27,2013-09-27,28,59
CDISCPILOT01,CM,01-701-1360,16,5,HYDROCODONE,UNCODED,PROPHYLAXIS OR NON-THERAPEUTIC USE,UNCODED,1,TABLET,Q3H,ORAL,201,RETRIEVAL,168,2014-02-11,2013-08-27,2013-09-27,28,59
CDISCPILOT01,CM,01-701-1360,9,3,"HYDROCORTISONE, TOPICAL",UNCODED,,UNCODED,1,VIAL,PRN,TOPICAL,4,WEEK 2,14,2013-08-14,2013-08-04,2013-08-12,5,13
CDISCPILOT01,CM,01-701-1360,2,2,TYLENOL EXTRA STRENGTH,UNCODED,,UNCODED,2,TABLET,PRN,ORAL,1,SCREENING 1,-7,2013-07-24,1996,,,
CDISCPILOT01,CM,01-701-1360,4,2,TYLENOL EXTRA STRENGTH,UNCODED,,UNCODED,2,TABLET,PRN,ORAL,2,SCREENING 2,-1,2013-07-29,1996,,,
CDISCPILOT01,CM,01-701-1360,6,2,TYLENOL EXTRA STRENGTH,UNCODED,,UNCODED,2,TABLET,PRN,ORAL,3,BASELINE,1,2013-07-31,1996,,,
CDISCPILOT01,CM,01-701-1360,8,2,TYLENOL EXTRA STRENGTH,UNCODED,,UNCODED,2,TABLET,PRN,ORAL,4,WEEK 2,14,2013-08-14,1996,,,
CDISCPILOT01,CM,01-701-1360,11,2,TYLENOL EXTRA STRENGTH,UNCODED,,UNCODED,2,TABLET,PRN,ORAL,101,AE FOLLOW-UP,,2013-09-09,1996,,,
CDISCPILOT01,CM,01-701-1360,15,2,TYLENOL EXTRA STRENGTH,UNCODED,,UNCODED,2,TABLET,PRN,ORAL,201,RETRIEVAL,168,2014-02-11,1996,,,
CDISCPILOT01,CM,01-701-1363,1,1,ASA,UNCODED,,UNCODED,650,mg,PRN,ORAL,1,SCREENING 1,-7,2013-05-20,1986,,,
CDISCPILOT01,CM,01-701-1363,3,1,ASA,UNCODED,,UNCODED,650,mg,PRN,ORAL,2,SCREENING 2,-1,2013-05-28,1986,,,
CDISCPILOT01,CM,01-701-1363,5,1,ASA,UNCODED,,UNCODED,650,mg,PRN,ORAL,3,BASELINE,1,2013-05-30,1986,,,
CDISCPILOT01,CM,01-701-1363,7,1,ASA,UNCODED,,UNCODED,650,mg,PRN,ORAL,4,WEEK 2,14,2013-06-12,1986,,,
CDISCPILOT01,CM,01-701-1363,9,1,ASA,UNCODED,,UNCODED,650,mg,PRN,ORAL,5,WEEK 4,28,2013-06-25,1986,,,
CDISCPILOT01,CM,01-701-1363,11,1,ASA,UNCODED,,UNCODED,650,mg,PRN,ORAL,6,AMBUL ECG REMOVAL,30,2013-06-27,1986,,,
CDISCPILOT01,CM,01-701-1363,13,1,ASA,UNCODED,,UNCODED,650,mg,PRN,ORAL,7,WEEK 6,42,2013-07-10,1986,,,
CDISCPILOT01,CM,01-701-1363,15,1,ASA,UNCODED,,UNCODED,650,mg,PRN,ORAL,8,WEEK 8,56,2013-07-24,1986,,,
CDISCPILOT01,CM,01-701-1363,17,1,ASA,UNCODED,,UNCODED,650,mg,PRN,ORAL,9,WEEK 12,84,2013-08-21,1986,,,
CDISCPILOT01,CM,01-701-1363,19,1,ASA,UNCODED,,UNCODED,650,mg,PRN,ORAL,10,WEEK 16,112,2013-09-18,1986,,,
CDISCPILOT01,CM,01-701-1363,22,1,ASA,UNCODED,,UNCODED,650,mg,PRN,ORAL,11,WEEK 20,140,2013-10-14,1986,,,
CDISCPILOT01,CM,01-701-1363,28,1,ASA,UNCODED,,UNCODED,650,mg,PRN,ORAL,12,WEEK 24,168,2013-11-13,1986,,,
CDISCPILOT01,CM,01-701-1363,33,1,ASA,UNCODED,,UNCODED,650,mg,PRN,ORAL,13,WEEK 26,182,2013-11-27,1986,,,
CDISCPILOT01,CM,01-701-1363,25,4,HYDROCORTISONE,HYDROCORTISONE,,"SYSTEMIC HORMONAL PREPARATIONS, EXCL.",1,VIAL,QD,TOPICAL,11,WEEK 20,140,2013-10-14,2013-09-19,,113,
CDISCPILOT01,CM,01-701-1363,31,4,HYDROCORTISONE,HYDROCORTISONE,,"SYSTEMIC HORMONAL PREPARATIONS, EXCL.",1,VIAL,QD,TOPICAL,12,WEEK 24,168,2013-11-13,2013-09-19,,113,
CDISCPILOT01,CM,01-701-1363,36,4,HYDROCORTISONE,HYDROCORTISONE,,"SYSTEMIC HORMONAL PREPARATIONS, EXCL.",1,VIAL,QD,TOPICAL,13,WEEK 26,182,2013-11-27,2013-09-19,,113,
CDISCPILOT01,CM,01-701-1363,27,5,ICY HOT,UNCODED,,UNCODED,1,VIAL,PRN,TOPICAL,11,WEEK 20,140,2013-10-14,2013-10-13,,137,
CDISCPILOT01,CM,01-701-1363,32,5,ICY HOT,UNCODED,,UNCODED,1,VIAL,PRN,TOPICAL,12,WEEK 24,168,2013-11-13,2013-10-13,,137,
CDISCPILOT01,CM,01-701-1363,37,5,ICY HOT,UNCODED,,UNCODED,1,VIAL,PRN,TOPICAL,13,WEEK 26,182,2013-11-27,2013-10-13,,137,
CDISCPILOT01,CM,01-701-1363,2,2,MAALOX,ALGELDRATE,,ALIMENTARY TRACT AND METABOLISM,3,tsp,PRN,ORAL,1,SCREENING 1,-7,2013-05-20,2011,,,
CDISCPILOT01,CM,01-701-1363,4,2,MAALOX,ALGELDRATE,,ALIMENTARY TRACT AND METABOLISM,3,tsp,PRN,ORAL,2,SCREENING 2,-1,2013-05-28,2011,,,
CDISCPILOT01,CM,01-701-1363,6,2,MAALOX,ALGELDRATE,,ALIMENTARY TRACT AND METABOLISM,3,tsp,PRN,ORAL,3,BASELINE,1,2013-05-30,2011,,,
CDISCPILOT01,CM,01-701-1363,8,2,MAALOX,ALGELDRATE,,ALIMENTARY TRACT AND METABOLISM,3,tsp,PRN,ORAL,4,WEEK 2,14,2013-06-12,2011,,,
CDISCPILOT01,CM,01-701-1363,10,2,MAALOX,ALGELDRATE,,ALIMENTARY TRACT AND METABOLISM,3,tsp,PRN,ORAL,5,WEEK 4,28,2013-06-25,2011,,,
CDISCPILOT01,CM,01-701-1363,12,2,MAALOX,ALGELDRATE,,ALIMENTARY TRACT AND METABOLISM,3,tsp,PRN,ORAL,6,AMBUL ECG REMOVAL,30,2013-06-27,2011,,,
CDISCPILOT01,CM,01-701-1363,14,2,MAALOX,ALGELDRATE,,ALIMENTARY TRACT AND METABOLISM,3,tsp,PRN,ORAL,7,WEEK 6,42,2013-07-10,2011,,,
CDISCPILOT01,CM,01-701-1363,16,2,MAALOX,ALGELDRATE,,ALIMENTARY TRACT AND METABOLISM,3,tsp,PRN,ORAL,8,WEEK 8,56,2013-07-24,2011,,,
CDISCPILOT01,CM,01-701-1363,18,2,MAALOX,ALGELDRATE,,ALIMENTARY TRACT AND METABOLISM,3,tsp,PRN,ORAL,9,WEEK 12,84,2013-08-21,2011,,,
CDISCPILOT01,CM,01-701-1363,20,2,MAALOX,ALGELDRATE,,ALIMENTARY TRACT AND METABOLISM,3,tsp,PRN,ORAL,10,WEEK 16,112,2013-09-18,2011,,,
CDISCPILOT01,CM,01-701-1363,23,2,MAALOX,ALGELDRATE,,ALIMENTARY TRACT AND METABOLISM,3,tsp,PRN,ORAL,11,WEEK 20,140,2013-10-14,2011,,,
CDISCPILOT01,CM,01-701-1363,29,2,MAALOX,ALGELDRATE,,ALIMENTARY TRACT AND METABOLISM,3,tsp,PRN,ORAL,12,WEEK 24,168,2013-11-13,2011,,,
CDISCPILOT01,CM,01-701-1363,34,2,MAALOX,ALGELDRATE,,ALIMENTARY TRACT AND METABOLISM,3,tsp,PRN,ORAL,13,WEEK 26,182,2013-11-27,2011,,,
CDISCPILOT01,CM,01-701-1363,26,6,MOTRIN,UNCODED,,UNCODED,400,mg,PRN,ORAL,11,WEEK 20,140,2013-10-14,2013-10-01,2013-10-01,125,125
CDISCPILOT01,CM,01-701-1363,21,3,MULTIVITAMIN,UNCODED,PROPHYLAXIS OR NON-THERAPEUTIC USE,UNCODED,1,TABLET,QD,ORAL,10,WEEK 16,112,2013-09-18,2013-08-22,,85,
CDISCPILOT01,CM,01-701-1363,24,3,MULTIVITAMIN,UNCODED,PROPHYLAXIS OR NON-THERAPEUTIC USE,UNCODED,1,TABLET,QD,ORAL,11,WEEK 20,140,2013-10-14,2013-08-22,,85,
CDISCPILOT01,CM,01-701-1363,30,3,MULTIVITAMIN,UNCODED,PROPHYLAXIS OR NON-THERAPEUTIC USE,UNCODED,1,TABLET,QD,ORAL,12,WEEK 24,168,2013-11-13,2013-08-22,,85,
CDISCPILOT01,CM,01-701-1363,35,3,MULTIVITAMIN,UNCODED,PROPHYLAXIS OR NON-THERAPEUTIC USE,UNCODED,1,TABLET,QD,ORAL,13,WEEK 26,182,2013-11-27,2013-08-22,,85,
CDISCPILOT01,CM,01-701-1383,1,1,CENTRUM SILVER,UNCODED,PROPHYLAXIS OR NON-THERAPEUTIC USE,UNCODED,1,TABLET,QD,ORAL,1,SCREENING 1,-7,2013-01-22,2012-03,,,
CDISCPILOT01,CM,01-701-1383,2,1,CENTRUM SILVER,UNCODED,PROPHYLAXIS OR NON-THERAPEUTIC USE,UNCODED,1,TABLET,QD,ORAL,2,SCREENING 2,-1,2013-02-02,2012-03,,,
CDISCPILOT01,CM,01-701-1383,3,1,CENTRUM SILVER,UNCODED,PROPHYLAXIS OR NON-THERAPEUTIC USE,UNCODED,1,TABLET,QD,ORAL,3,BASELINE,1,2013-02-04,2012-03,,,
CDISCPILOT01,CM,01-701-1383,4,1,CENTRUM SILVER,UNCODED,PROPHYLAXIS OR NON-THERAPEUTIC USE,UNCODED,1,TABLET,QD,ORAL,4,WEEK 2,14,2013-02-19,2012-03,,,
CDISCPILOT01,CM,01-701-1383,5,1,CENTRUM SILVER,UNCODED,PROPHYLAXIS OR NON-THERAPEUTIC USE,UNCODED,1,TABLET,QD,ORAL,5,WEEK 4,28,2013-03-12,2012-03,,,
CDISCPILOT01,CM,01-701-1383,6,1,CENTRUM SILVER,UNCODED,PROPHYLAXIS OR NON-THERAPEUTIC USE,UNCODED,1,TABLET,QD,ORAL,6,AMBUL ECG REMOVAL,30,2013-03-14,2012-03,,,
CDISCPILOT01,CM,01-701-1383,7,1,CENTRUM SILVER,UNCODED,PROPHYLAXIS OR NON-THERAPEUTIC USE,UNCODED,1,TABLET,QD,ORAL,7,WEEK 6,42,2013-03-19,2012-03,,,
CDISCPILOT01,CM,01-701-1383,8,1,CENTRUM SILVER,UNCODED,PROPHYLAXIS OR NON-THERAPEUTIC USE,UNCODED,1,TABLET,QD,ORAL,8,WEEK 8,56,2013-04-02,2012-03,,,
CDISCPILOT01,CM,01-701-1383,9,1,CENTRUM SILVER,UNCODED,PROPHYLAXIS OR NON-THERAPEUTIC USE,UNCODED,1,TABLET,QD,ORAL,9,WEEK 12,84,2013-04-30,2012-03,,,
CDISCPILOT01,CM,01-701-1383,10,1,CENTRUM SILVER,UNCODED,PROPHYLAXIS OR NON-THERAPEUTIC USE,UNCODED,1,TABLET,QD,ORAL,10,WEEK 16,112,2013-05-30,2012-03,,,
CDISCPILOT01,CM,01-701-1383,12,1,CENTRUM SILVER,UNCODED,PROPHYLAXIS OR NON-THERAPEUTIC USE,UNCODED,1,TABLET,QD,ORAL,11,WEEK 20,140,2013-06-25,2012-03,,,
CDISCPILOT01,CM,01-701-1383,14,1,CENTRUM SILVER,UNCODED,PROPHYLAXIS OR NON-THERAPEUTIC USE,UNCODED,1,TABLET,QD,ORAL,12,WEEK 24,168,2013-07-30,2012-03,,,
CDISCPILOT01,CM,01-701-1383,18,1,CENTRUM SILVER,UNCODED,PROPHYLAXIS OR NON-THERAPEUTIC USE,UNCODED,1,TABLET,QD,ORAL,13,WEEK 26,182,2013-08-06,2012-03,,,
CDISCPILOT01,CM,01-701-1383,16,4,CEPHALEXIN,UNCODED,,UNCODED,500,mg,QID,ORAL,12,WEEK 24,168,2013-07-30,2013-07-19,2013-08-01,166,179
CDISCPILOT01,CM,01-701-1383,20,4,CEPHALEXIN,UNCODED,,UNCODED,500,mg,QID,ORAL,13,WEEK 26,182,2013-08-06,2013-07-19,2013-08-01,166,179
CDISCPILOT01,CM,01-701-1383,11,2,HYDROCORTISONE,HYDROCORTISONE,,"SYSTEMIC HORMONAL PREPARATIONS, EXCL.",1,VIAL,PRN,TOPICAL,10,WEEK 16,112,2013-05-30,2013-05-14,,100,
CDISCPILOT01,CM,01-701-1383,13,2,HYDROCORTISONE,HYDROCORTISONE,,"SYSTEMIC HORMONAL PREPARATIONS, EXCL.",1,VIAL,PRN,TOPICAL,11,WEEK 20,140,2013-06-25,2013-05-14,,100,
CDISCPILOT01,CM,01-701-1383,15,2,HYDROCORTISONE,HYDROCORTISONE,,"SYSTEMIC HORMONAL PREPARATIONS, EXCL.",1,VIAL,PRN,TOPICAL,12,WEEK 24,168,2013-07-30,2013-05-14,,100,
CDISCPILOT01,CM,01-701-1383,19,2,HYDROCORTISONE,HYDROCORTISONE,,"SYSTEMIC HORMONAL PREPARATIONS, EXCL.",1,VIAL,PRN,TOPICAL,13,WEEK 26,182,2013-08-06,2013-05-14,,100,
CDISCPILOT01,CM,01-701-1383,17,3,PROMETHAZINE HCL W/CODEINE,UNCODED,,UNCODED,2,tsp,Q6H,ORAL,12,WEEK 24,168,2013-07-30,2013-07-19,2013-07-25,166,172
CDISCPILOT01,CM,01-701-1387,1,1,ECOTRIN,UNCODED,,UNCODED,1,TABLET,PRN,ORAL,1,SCREENING 1,-7,2014-02-23,2012,,,
CDISCPILOT01,CM,01-701-1387,2,1,ECOTRIN,UNCODED,,UNCODED,1,TABLET,PRN,ORAL,2,SCREENING 2,-1,2014-03-08,2012,,,
CDISCPILOT01,CM,01-701-1387,3,1,ECOTRIN,UNCODED,,UNCODED,1,TABLET,PRN,ORAL,3,BASELINE,1,2014-03-12,2012,,,
CDISCPILOT01,CM,01-701-1387,4,1,ECOTRIN,UNCODED,,UNCODED,1,TABLET,PRN,ORAL,4,WEEK 2,14,2014-03-25,2012,,,
CDISCPILOT01,CM,01-701-1387,5,1,ECOTRIN,UNCODED,,UNCODED,1,TABLET,PRN,ORAL,201,RETRIEVAL,168,2014-08-27,2012,,,
CDISCPILOT01,CM,01-701-1392,1,1,HYDROCHLOROTHIAZIDE,UNCODED,,UNCODED,25,mg,QD,ORAL,1,SCREENING 1,-7,2012-10-17,2008,,,
CDISCPILOT01,CM,01-701-1392,5,1,HYDROCHLOROTHIAZIDE,UNCODED,,UNCODED,25,mg,QD,ORAL,2,SCREENING 2,-1,2012-10-26,2008,,,
CDISCPILOT01,CM,01-701-1392,9,1,HYDROCHLOROTHIAZIDE,UNCODED,,UNCODED,25,mg,QD,ORAL,3,BASELINE,1,2012-10-28,2008,,,
CDISCPILOT01,CM,01-701-1392,13,1,HYDROCHLOROTHIAZIDE,UNCODED,,UNCODED,25,mg,QD,ORAL,4,WEEK 2,14,2012-11-11,2008,,,
CDISCPILOT01,CM,01-701-1392,17,1,HYDROCHLOROTHIAZIDE,UNCODED,,UNCODED,25,mg,QD,ORAL,5,WEEK 4,28,2012-11-24,2008,,,
CDISCPILOT01,CM,01-701-1392,21,1,HYDROCHLOROTHIAZIDE,UNCODED,,UNCODED,25,mg,QD,ORAL,6,AMBUL ECG REMOVAL,30,2012-11-26,2008,,,
CDISCPILOT01,CM,01-701-1392,25,1,HYDROCHLOROTHIAZIDE,UNCODED,,UNCODED,25,mg,QD,ORAL,7,WEEK 6,42,2012-12-09,2008,,,
CDISCPILOT01,CM,01-701-1392,29,1,HYDROCHLOROTHIAZIDE,UNCODED,,UNCODED,25,mg,QD,ORAL,8,WEEK 8,56,2012-12-20,2008,,,
CDISCPILOT01,CM,01-701-1392,33,1,HYDROCHLOROTHIAZIDE,UNCODED,,UNCODED,25,mg,QD,ORAL,9,WEEK 12,84,2013-01-20,2008,,,
CDISCPILOT01,CM,01-701-1392,37,1,HYDROCHLOROTHIAZIDE,UNCODED,,UNCODED,25,mg,QD,ORAL,10,WEEK 16,112,2013-02-17,2008,,,
CDISCPILOT01,CM,01-701-1392,41,1,HYDROCHLOROTHIAZIDE,UNCODED,,UNCODED,25,mg,QD,ORAL,11,WEEK 20,140,2013-03-17,2008,,,
CDISCPILOT01,CM,01-701-1392,45,1,HYDROCHLOROTHIAZIDE,UNCODED,,UNCODED,25,mg,QD,ORAL,12,WEEK 24,168,2013-04-15,2008,,,
CDISCPILOT01,CM,01-701-1392,49,1,HYDROCHLOROTHIAZIDE,UNCODED,,UNCODED,25,mg,QD,ORAL,13,WEEK 26,182,2013-04-28,2008,,,
CDISCPILOT01,CM,01-701-1392,2,2,VITAMIN D,UNCODED,PROPHYLAXIS OR NON-THERAPEUTIC USE,UNCODED,1,TABLET,QD,ORAL,1,SCREENING 1,-7,2012-10-17,2011,,,
CDISCPILOT01,CM,01-701-1392,6,2,VITAMIN D,UNCODED,PROPHYLAXIS OR NON-THERAPEUTIC USE,UNCODED,1,TABLET,QD,ORAL,2,SCREENING 2,-1,2012-10-26,2011,,,
CDISCPILOT01,CM,01-701-1392,10,2,VITAMIN D,UNCODED,PROPHYLAXIS OR NON-THERAPEUTIC USE,UNCODED,1,TABLET,QD,ORAL,3,BASELINE,1,2012-10-28,2011,,,
CDISCPILOT01,CM,01-701-1392,14,2,VITAMIN D,UNCODED,PROPHYLAXIS OR NON-THERAPEUTIC USE,UNCODED,1,TABLET,QD,ORAL,4,WEEK 2,14,2012-11-11,2011,,,
CDISCPILOT01,CM,01-701-1392,18,2,VITAMIN D,UNCODED,PROPHYLAXIS OR NON-THERAPEUTIC USE,UNCODED,1,TABLET,QD,ORAL,5,WEEK 4,28,2012-11-24,2011,,,
CDISCPILOT01,CM,01-701-1392,22,2,VITAMIN D,UNCODED,PROPHYLAXIS OR NON-THERAPEUTIC USE,UNCODED,1,TABLET,QD,ORAL,6,AMBUL ECG REMOVAL,30,2012-11-26,2011,,,
CDISCPILOT01,CM,01-701-1392,26,2,VITAMIN D,UNCODED,PROPHYLAXIS OR NON-THERAPEUTIC USE,UNCODED,1,TABLET,QD,ORAL,7,WEEK 6,42,2012-12-09,2011,,,
CDISCPILOT01,CM,01-701-1392,30,2,VITAMIN D,UNCODED,PROPHYLAXIS OR NON-THERAPEUTIC USE,UNCODED,1,TABLET,QD,ORAL,8,WEEK 8,56,2012-12-20,2011,,,
CDISCPILOT01,CM,01-701-1392,34,2,VITAMIN D,UNCODED,PROPHYLAXIS OR NON-THERAPEUTIC USE,UNCODED,1,TABLET,QD,ORAL,9,WEEK 12,84,2013-01-20,2011,,,
CDISCPILOT01,CM,01-701-1392,38,2,VITAMIN D,UNCODED,PROPHYLAXIS OR NON-THERAPEUTIC USE,UNCODED,1,TABLET,QD,ORAL,10,WEEK 16,112,2013-02-17,2011,,,
CDISCPILOT01,CM,01-701-1392,42,2,VITAMIN D,UNCODED,PROPHYLAXIS OR NON-THERAPEUTIC USE,UNCODED,1,TABLET,QD,ORAL,11,WEEK 20,140,2013-03-17,2011,,,
CDISCPILOT01,CM,01-701-1392,46,2,VITAMIN D,UNCODED,PROPHYLAXIS OR NON-THERAPEUTIC USE,UNCODED,1,TABLET,QD,ORAL,12,WEEK 24,168,2013-04-15,2011,,,
CDISCPILOT01,CM,01-701-1392,50,2,VITAMIN D,UNCODED,PROPHYLAXIS OR NON-THERAPEUTIC USE,UNCODED,1,TABLET,QD,ORAL,13,WEEK 26,182,2013-04-28,2011,,,
CDISCPILOT01,CM,01-701-1392,3,3,VITAMIN E,UNCODED,PROPHYLAXIS OR NON-THERAPEUTIC USE,UNCODED,1,TABLET,QD,ORAL,1,SCREENING 1,-7,2012-10-17,2011,,,
CDISCPILOT01,CM,01-701-1392,7,3,VITAMIN E,UNCODED,PROPHYLAXIS OR NON-THERAPEUTIC USE,UNCODED,1,TABLET,QD,ORAL,2,SCREENING 2,-1,2012-10-26,2011,,,
CDISCPILOT01,CM,01-701-1392,11,3,VITAMIN E,UNCODED,PROPHYLAXIS OR NON-THERAPEUTIC USE,UNCODED,1,TABLET,QD,ORAL,3,BASELINE,1,2012-10-28,2011,,,
CDISCPILOT01,CM,01-701-1392,15,3,VITAMIN E,UNCODED,PROPHYLAXIS OR NON-THERAPEUTIC USE,UNCODED,1,TABLET,QD,ORAL,4,WEEK 2,14,2012-11-11,2011,,,
CDISCPILOT01,CM,01-701-1392,19,3,VITAMIN E,UNCODED,PROPHYLAXIS OR NON-THERAPEUTIC USE,UNCODED,1,TABLET,QD,ORAL,5,WEEK 4,28,2012-11-24,2011,,,
CDISCPILOT01,CM,01-701-1392,23,3,VITAMIN E,UNCODED,PROPHYLAXIS OR NON-THERAPEUTIC USE,UNCODED,1,TABLET,QD,ORAL,6,AMBUL ECG REMOVAL,30,2012-11-26,2011,,,
CDISCPILOT01,CM,01-701-1392,27,3,VITAMIN E,UNCODED,PROPHYLAXIS OR NON-THERAPEUTIC USE,UNCODED,1,TABLET,QD,ORAL,7,WEEK 6,42,2012-12-09,2011,,,
CDISCPILOT01,CM,01-701-1392,31,3,VITAMIN E,UNCODED,PROPHYLAXIS OR NON-THERAPEUTIC USE,UNCODED,1,TABLET,QD,ORAL,8,WEEK 8,56,2012-12-20,2011,,,
CDISCPILOT01,CM,01-701-1392,35,3,VITAMIN E,UNCODED,PROPHYLAXIS OR NON-THERAPEUTIC USE,UNCODED,1,TABLET,QD,ORAL,9,WEEK 12,84,2013-01-20,2011,,,
CDISCPILOT01,CM,01-701-1392,39,3,VITAMIN E,UNCODED,PROPHYLAXIS OR NON-THERAPEUTIC USE,UNCODED,1,TABLET,QD,ORAL,10,WEEK 16,112,2013-02-17,2011,,,
CDISCPILOT01,CM,01-701-1392,43,3,VITAMIN E,UNCODED,PROPHYLAXIS OR NON-THERAPEUTIC USE,UNCODED,1,TABLET,QD,ORAL,11,WEEK 20,140,2013-03-17,2011,,,
CDISCPILOT01,CM,01-701-1392,47,3,VITAMIN E,UNCODED,PROPHYLAXIS OR NON-THERAPEUTIC USE,UNCODED,1,TABLET,QD,ORAL,12,WEEK 24,168,2013-04-15,2011,,,
CDISCPILOT01,CM,01-701-1392,51,3,VITAMIN E,UNCODED,PROPHYLAXIS OR NON-THERAPEUTIC USE,UNCODED,1,TABLET,QD,ORAL,13,WEEK 26,182,2013-04-28,2011,,,
CDISCPILOT01,CM,01-701-1392,4,4,ZESTRIL,UNCODED,,UNCODED,5,mg,QD,ORAL,1,SCREENING 1,-7,2012-10-17,2011-03-17,,-591,
CDISCPILOT01,CM,01-701-1392,8,4,ZESTRIL,UNCODED,,UNCODED,5,mg,QD,ORAL,2,SCREENING 2,-1,2012-10-26,2011-03-17,,-591,
CDISCPILOT01,CM,01-701-1392,12,4,ZESTRIL,UNCODED,,UNCODED,5,mg,QD,ORAL,3,BASELINE,1,2012-10-28,2011-03-17,,-591,
CDISCPILOT01,CM,01-701-1392,16,4,ZESTRIL,UNCODED,,UNCODED,5,mg,QD,ORAL,4,WEEK 2,14,2012-11-11,2011-03-17,,-591,
CDISCPILOT01,CM,01-701-1392,20,4,ZESTRIL,UNCODED,,UNCODED,5,mg,QD,ORAL,5,WEEK 4,28,2012-11-24,2011-03-17,,-591,
CDISCPILOT01,CM,01-701-1392,24,4,ZESTRIL,UNCODED,,UNCODED,5,mg,QD,ORAL,6,AMBUL ECG REMOVAL,30,2012-11-26,2011-03-17,,-591,
CDISCPILOT01,CM,01-701-1392,28,4,ZESTRIL,UNCODED,,UNCODED,5,mg,QD,ORAL,7,WEEK 6,42,2012-12-09,2011-03-17,,-591,
CDISCPILOT01,CM,01-701-1392,32,4,ZESTRIL,UNCODED,,UNCODED,5,mg,QD,ORAL,8,WEEK 8,56,2012-12-20,2011-03-17,,-591,
CDISCPILOT01,CM,01-701-1392,36,4,ZESTRIL,UNCODED,,UNCODED,5,mg,QD,ORAL,9,WEEK 12,84,2013-01-20,2011-03-17,,-591,
CDISCPILOT01,CM,01-701-1392,40,4,ZESTRIL,UNCODED,,UNCODED,5,mg,QD,ORAL,10,WEEK 16,112,2013-02-17,2011-03-17,,-591,
CDISCPILOT01,CM,01-701-1392,44,4,ZESTRIL,UNCODED,,UNCODED,5,mg,QD,ORAL,11,WEEK 20,140,2013-03-17,2011-03-17,,-591,
CDISCPILOT01,CM,01-701-1392,48,4,ZESTRIL,UNCODED,,UNCODED,5,mg,QD,ORAL,12,WEEK 24,168,2013-04-15,2011-03-17,,-591,
CDISCPILOT01,CM,01-701-1392,52,4,ZESTRIL,UNCODED,,UNCODED,5,mg,QD,ORAL,13,WEEK 26,182,2013-04-28,2011-03-17,,-591,
CDISCPILOT01,CM,01-701-1415,3,1,AMPICILLIN,UNCODED,,UNCODED,250,mg,TID,ORAL,1,SCREENING 1,-7,2013-09-15,2013-08-12,2013-08-22,-42,-32
CDISCPILOT01,CM,01-701-1415,25,5,CEFACLOR,UNCODED,,UNCODED,500,mg,TID,ORAL,11,WEEK 20,140,2014-02-10,2014-01-21,2014-02-09,121,140
CDISCPILOT01,CM,01-701-1415,1,2,MOTRIN,UNCODED,,UNCODED,400,mg,PRN,ORAL,1,SCREENING 1,-7,2013-09-15,2007,,,
CDISCPILOT01,CM,01-701-1415,5,2,MOTRIN,UNCODED,,UNCODED,400,mg,PRN,ORAL,2,SCREENING 2,-1,2013-09-21,2007,,,
CDISCPILOT01,CM,01-701-1415,7,2,MOTRIN,UNCODED,,UNCODED,400,mg,PRN,ORAL,3,BASELINE,1,2013-09-23,2007,,,
CDISCPILOT01,CM,01-701-1415,9,2,MOTRIN,UNCODED,,UNCODED,400,mg,PRN,ORAL,4,WEEK 2,14,2013-10-07,2007,,,
CDISCPILOT01,CM,01-701-1415,11,2,MOTRIN,UNCODED,,UNCODED,400,mg,PRN,ORAL,5,WEEK 4,28,2013-10-20,2007,,,
CDISCPILOT01,CM,01-701-1415,13,2,MOTRIN,UNCODED,,UNCODED,400,mg,PRN,ORAL,6,AMBUL ECG REMOVAL,30,2013-10-22,2007,,,
CDISCPILOT01,CM,01-701-1415,15,2,MOTRIN,UNCODED,,UNCODED,400,mg,PRN,ORAL,7,WEEK 6,42,2013-11-04,2007,,,
CDISCPILOT01,CM,01-701-1415,17,2,MOTRIN,UNCODED,,UNCODED,400,mg,PRN,ORAL,8,WEEK 8,56,2013-11-21,2007,,,
CDISCPILOT01,CM,01-701-1415,19,2,MOTRIN,UNCODED,,UNCODED,400,mg,PRN,ORAL,9,WEEK 12,84,2013-12-21,2007,,,
CDISCPILOT01,CM,01-701-1415,21,2,MOTRIN,UNCODED,,UNCODED,400,mg,PRN,ORAL,10,WEEK 16,112,2014-01-14,2007,,,
CDISCPILOT01,CM,01-701-1415,23,2,MOTRIN,UNCODED,,UNCODED,400,mg,PRN,ORAL,11,WEEK 20,140,2014-02-10,2007,,,
CDISCPILOT01,CM,01-701-1415,26,2,MOTRIN,UNCODED,,UNCODED,400,mg,PRN,ORAL,12,WEEK 24,168,2014-03-10,2007,,,
CDISCPILOT01,CM,01-701-1415,28,2,MOTRIN,UNCODED,,UNCODED,400,mg,PRN,ORAL,13,WEEK 26,182,2014-03-24,2007,,,
CDISCPILOT01,CM,01-701-1415,2,3,OCUVITE,UNCODED,PROPHYLAXIS OR NON-THERAPEUTIC USE,UNCODED,1,TABLET,BID,ORAL,1,SCREENING 1,-7,2013-09-15,2012-01,,,
CDISCPILOT01,CM,01-701-1415,6,3,OCUVITE,UNCODED,PROPHYLAXIS OR NON-THERAPEUTIC USE,UNCODED,1,TABLET,BID,ORAL,2,SCREENING 2,-1,2013-09-21,2012-01,,,
CDISCPILOT01,CM,01-701-1415,8,3,OCUVITE,UNCODED,PROPHYLAXIS OR NON-THERAPEUTIC USE,UNCODED,1,TABLET,BID,ORAL,3,BASELINE,1,2013-09-23,2012-01,,,
CDISCPILOT01,CM,01-701-1415,10,3,OCUVITE,UNCODED,PROPHYLAXIS OR NON-THERAPEUTIC USE,UNCODED,1,TABLET,BID,ORAL,4,WEEK 2,14,2013-10-07,2012-01,,,
CDISCPILOT01,CM,01-701-1415,12,3,OCUVITE,UNCODED,PROPHYLAXIS OR NON-THERAPEUTIC USE,UNCODED,1,TABLET,BID,ORAL,5,WEEK 4,28,2013-10-20,2012-01,,,
CDISCPILOT01,CM,01-701-1415,14,3,OCUVITE,UNCODED,PROPHYLAXIS OR NON-THERAPEUTIC USE,UNCODED,1,TABLET,BID,ORAL,6,AMBUL ECG REMOVAL,30,2013-10-22,2012-01,,,
CDISCPILOT01,CM,01-701-1415,16,3,OCUVITE,UNCODED,PROPHYLAXIS OR NON-THERAPEUTIC USE,UNCODED,1,TABLET,BID,ORAL,7,WEEK 6,42,2013-11-04,2012-01,,,
CDISCPILOT01,CM,01-701-1415,18,3,OCUVITE,UNCODED,PROPHYLAXIS OR NON-THERAPEUTIC USE,UNCODED,1,TABLET,BID,ORAL,8,WEEK 8,56,2013-11-21,2012-01,,,
CDISCPILOT01,CM,01-701-1415,20,3,OCUVITE,UNCODED,PROPHYLAXIS OR NON-THERAPEUTIC USE,UNCODED,1,TABLET,BID,ORAL,9,WEEK 12,84,2013-12-21,2012-01,,,
CDISCPILOT01,CM,01-701-1415,22,3,OCUVITE,UNCODED,PROPHYLAXIS OR NON-THERAPEUTIC USE,UNCODED,1,TABLET,BID,ORAL,10,WEEK 16,112,2014-01-14,2012-01,,,
CDISCPILOT01,CM,01-701-1415,24,3,OCUVITE,UNCODED,PROPHYLAXIS OR NON-THERAPEUTIC USE,UNCODED,1,TABLET,BID,ORAL,11,WEEK 20,140,2014-02-10,2012-01,,,
CDISCPILOT01,CM,01-701-1415,27,3,OCUVITE,UNCODED,PROPHYLAXIS OR NON-THERAPEUTIC USE,UNCODED,1,TABLET,BID,ORAL,12,WEEK 24,168,2014-03-10,2012-01,,,
CDISCPILOT01,CM,01-701-1415,29,3,OCUVITE,UNCODED,PROPHYLAXIS OR NON-THERAPEUTIC USE,UNCODED,1,TABLET,BID,ORAL,13,WEEK 26,182,2014-03-24,2012-01,,,
CDISCPILOT01,CM,01-701-1415,4,4,PROMETHAZINE HCL W/CODEINE,UNCODED,,UNCODED,1,tsp,ONCE,ORAL,1,SCREENING 1,-7,2013-09-15,2013-08-15,2013-08-15,-39,-39
CDISCPILOT01,CM,01-701-1440,1,1,CENTRAL-VITE,UNCODED,PROPHYLAXIS OR NON-THERAPEUTIC USE,UNCODED,1,TABLET,QD,ORAL,1,SCREENING 1,-7,2013-07-24,2013-06,,,
CDISCPILOT01,CM,01-701-1440,2,1,CENTRAL-VITE,UNCODED,PROPHYLAXIS OR NON-THERAPEUTIC USE,UNCODED,1,TABLET,QD,ORAL,2,SCREENING 2,-1,2013-08-06,2013-06,,,
CDISCPILOT01,CM,01-701-1440,3,1,CENTRAL-VITE,UNCODED,PROPHYLAXIS OR NON-THERAPEUTIC USE,UNCODED,1,TABLET,QD,ORAL,3,BASELINE,1,2013-08-08,2013-06,,,
CDISCPILOT01,CM,01-701-1440,4,1,CENTRAL-VITE,UNCODED,PROPHYLAXIS OR NON-THERAPEUTIC USE,UNCODED,1,TABLET,QD,ORAL,4,WEEK 2,14,2013-08-23,2013-06,,,
CDISCPILOT01,CM,01-701-1440,5,1,CENTRAL-VITE,UNCODED,PROPHYLAXIS OR NON-THERAPEUTIC USE,UNCODED,1,TABLET,QD,ORAL,5,WEEK 4,28,2013-09-04,2013-06,,,
CDISCPILOT01,CM,01-701-1440,6,1,CENTRAL-VITE,UNCODED,PROPHYLAXIS OR NON-THERAPEUTIC USE,UNCODED,1,TABLET,QD,ORAL,6,AMBUL ECG REMOVAL,30,2013-09-06,2013-06,,,
CDISCPILOT01,CM,01-701-1440,7,1,CENTRAL-VITE,UNCODED,PROPHYLAXIS OR NON-THERAPEUTIC USE,UNCODED,1,TABLET,QD,ORAL,7,WEEK 6,42,2013-09-22,2013-06,,,
CDISCPILOT01,CM,01-701-1440,8,1,CENTRAL-VITE,UNCODED,PROPHYLAXIS OR NON-THERAPEUTIC USE,UNCODED,1,TABLET,QD,ORAL,8,WEEK 8,56,2013-10-03,2013-06,,,
CDISCPILOT01,CM,01-701-1440,9,1,CENTRAL-VITE,UNCODED,PROPHYLAXIS OR NON-THERAPEUTIC USE,UNCODED,1,TABLET,QD,ORAL,9,WEEK 12,84,2013-10-31,2013-06,,,
CDISCPILOT01,CM,01-701-1440,10,1,CENTRAL-VITE,UNCODED,PROPHYLAXIS OR NON-THERAPEUTIC USE,UNCODED,1,TABLET,QD,ORAL,10,WEEK 16,112,2013-11-27,2013-06,,,
CDISCPILOT01,CM,01-701-1440,11,1,CENTRAL-VITE,UNCODED,PROPHYLAXIS OR NON-THERAPEUTIC USE,UNCODED,1,TABLET,QD,ORAL,11,WEEK 20,140,2013-12-25,2013-06,,,
CDISCPILOT01,CM,01-701-1440,12,1,CENTRAL-VITE,UNCODED,PROPHYLAXIS OR NON-THERAPEUTIC USE,UNCODED,1,TABLET,QD,ORAL,12,WEEK 24,168,2014-01-22,2013-06,,,
CDISCPILOT01,CM,01-701-1440,13,1,CENTRAL-VITE,UNCODED,PROPHYLAXIS OR NON-THERAPEUTIC USE,UNCODED,1,TABLET,QD,ORAL,13,WEEK 26,182,2014-02-05,2013-06,,,
CDISCPILOT01,CM,01-701-1442,1,1,PREMARIN,ESTROGENS CONJUGATED,PROPHYLAXIS OR NON-THERAPEUTIC USE,GENITO URINARY SYSTEM AND SEX HORMONES,0.625,mg,QD,ORAL,1,SCREENING 1,-7,2013-10-17,1997,,,
CDISCPILOT01,CM,01-701-1442,2,1,PREMARIN,ESTROGENS CONJUGATED,PROPHYLAXIS OR NON-THERAPEUTIC USE,GENITO URINARY SYSTEM AND SEX HORMONES,0.625,mg,QD,ORAL,2,SCREENING 2,-1,2013-10-24,1997,,,
CDISCPILOT01,CM,01-701-1442,3,1,PREMARIN,ESTROGENS CONJUGATED,PROPHYLAXIS OR NON-THERAPEUTIC USE,GENITO URINARY SYSTEM AND SEX HORMONES,0.625,mg,QD,ORAL,3,BASELINE,1,2013-10-26,1997,,,
CDISCPILOT01,CM,01-701-1442,4,1,PREMARIN,ESTROGENS CONJUGATED,PROPHYLAXIS OR NON-THERAPEUTIC USE,GENITO URINARY SYSTEM AND SEX HORMONES,0.625,mg,QD,ORAL,4,WEEK 2,14,2013-11-09,1997,,,
CDISCPILOT01,CM,01-701-1442,5,1,PREMARIN,ESTROGENS CONJUGATED,PROPHYLAXIS OR NON-THERAPEUTIC USE,GENITO URINARY SYSTEM AND SEX HORMONES,0.625,mg,QD,ORAL,5,WEEK 4,28,2013-11-23,1997,,,
CDISCPILOT01,CM,01-701-1442,6,1,PREMARIN,ESTROGENS CONJUGATED,PROPHYLAXIS OR NON-THERAPEUTIC USE,GENITO URINARY SYSTEM AND SEX HORMONES,0.625,mg,QD,ORAL,6,AMBUL ECG REMOVAL,30,2013-11-25,1997,,,
CDISCPILOT01,CM,01-701-1442,7,1,PREMARIN,ESTROGENS CONJUGATED,PROPHYLAXIS OR NON-THERAPEUTIC USE,GENITO URINARY SYSTEM AND SEX HORMONES,0.625,mg,QD,ORAL,7,WEEK 6,42,2013-12-07,1997,,,
CDISCPILOT01,CM,01-701-1442,8,1,PREMARIN,ESTROGENS CONJUGATED,PROPHYLAXIS OR NON-THERAPEUTIC USE,GENITO URINARY SYSTEM AND SEX HORMONES,0.625,mg,QD,ORAL,8,WEEK 8,56,2013-12-26,1997,,,
CDISCPILOT01,CM,01-701-1442,9,1,PREMARIN,ESTROGENS CONJUGATED,PROPHYLAXIS OR NON-THERAPEUTIC USE,GENITO URINARY SYSTEM AND SEX HORMONES,0.625,mg,QD,ORAL,9,WEEK 12,84,2014-01-18,1997,,,
CDISCPILOT01,CM,01-701-1442,10,1,PREMARIN,ESTROGENS CONJUGATED,PROPHYLAXIS OR NON-THERAPEUTIC USE,GENITO URINARY SYSTEM AND SEX HORMONES,0.625,mg,QD,ORAL,10,WEEK 16,112,2014-02-15,1997,,,
CDISCPILOT01,CM,01-701-1442,11,1,PREMARIN,ESTROGENS CONJUGATED,PROPHYLAXIS OR NON-THERAPEUTIC USE,GENITO URINARY SYSTEM AND SEX HORMONES,0.625,mg,QD,ORAL,11,WEEK 20,140,2014-03-15,1997,,,
CDISCPILOT01,CM,01-701-1442,12,1,PREMARIN,ESTROGENS CONJUGATED,PROPHYLAXIS OR NON-THERAPEUTIC USE,GENITO URINARY SYSTEM AND SEX HORMONES,0.625,mg,QD,ORAL,12,WEEK 24,168,2014-04-17,1997,,,
CDISCPILOT01,CM,01-701-1442,13,1,PREMARIN,ESTROGENS CONJUGATED,PROPHYLAXIS OR NON-THERAPEUTIC USE,GENITO URINARY SYSTEM AND SEX HORMONES,0.625,mg,QD,ORAL,13,WEEK 26,182,2014-04-26,1997,,,
CDISCPILOT01,CM,01-701-1444,2,1,ADVIL,UNCODED,,UNCODED,200,mg,PRN,ORAL,1,SCREENING 1,-7,2012-12-31,2011,,,
CDISCPILOT01,CM,01-701-1444,5,1,ADVIL,UNCODED,,UNCODED,200,mg,PRN,ORAL,2,SCREENING 2,-1,2013-01-03,2011,,,
CDISCPILOT01,CM,01-701-1444,8,1,ADVIL,UNCODED,,UNCODED,200,mg,PRN,ORAL,3,BASELINE,1,2013-01-05,2011,,,
CDISCPILOT01,CM,01-701-1444,11,1,ADVIL,UNCODED,,UNCODED,200,mg,PRN,ORAL,4,WEEK 2,14,2013-01-18,2011,,,
CDISCPILOT01,CM,01-701-1444,14,1,ADVIL,UNCODED,,UNCODED,200,mg,PRN,ORAL,5,WEEK 4,28,2013-01-31,2011,,,
CDISCPILOT01,CM,01-701-1444,16,1,ADVIL,UNCODED,,UNCODED,200,mg,PRN,ORAL,6,AMBUL ECG REMOVAL,30,2013-02-02,2011,,,
CDISCPILOT01,CM,01-701-1444,18,1,ADVIL,UNCODED,,UNCODED,200,mg,PRN,ORAL,7,WEEK 6,42,2013-02-13,2011,,,
CDISCPILOT01,CM,01-701-1444,20,1,ADVIL,UNCODED,,UNCODED,200,mg,PRN,ORAL,101,AE FOLLOW-UP,,2013-06-20,2011,,,
CDISCPILOT01,CM,01-701-1444,25,1,ADVIL,UNCODED,,UNCODED,200,mg,PRN,ORAL,201,RETRIEVAL,168,2013-06-20,2011,,,
CDISCPILOT01,CM,01-701-1444,21,4,BENADRYL,UNCODED,,UNCODED,75,mg,Q6H,ORAL,101,AE FOLLOW-UP,,2013-06-20,2013-02-18,2013-05-10,45,126
CDISCPILOT01,CM,01-701-1444,3,3,DOCUSATE SODIUM,UNCODED,,UNCODED,100,mg,PRN,ORAL,1,SCREENING 1,-7,2012-12-31,2012-11,2013-01-05,,1
CDISCPILOT01,CM,01-701-1444,6,3,DOCUSATE SODIUM,UNCODED,,UNCODED,100,mg,PRN,ORAL,2,SCREENING 2,-1,2013-01-03,2012-11,2013-01-05,,1
CDISCPILOT01,CM,01-701-1444,9,3,DOCUSATE SODIUM,UNCODED,,UNCODED,100,mg,PRN,ORAL,3,BASELINE,1,2013-01-05,2012-11,2013-01-05,,1
CDISCPILOT01,CM,01-701-1444,12,3,DOCUSATE SODIUM,UNCODED,,UNCODED,100,mg,PRN,ORAL,4,WEEK 2,14,2013-01-18,2012-11,2013-01-05,,1
CDISCPILOT01,CM,01-701-1444,1,2,METAMUCIL,UNCODED,,UNCODED,3,Tbsp,QD,ORAL,1,SCREENING 1,-7,2012-12-31,2009,,,
CDISCPILOT01,CM,01-701-1444,4,2,METAMUCIL,UNCODED,,UNCODED,3,Tbsp,QD,ORAL,2,SCREENING 2,-1,2013-01-03,2009,,,
CDISCPILOT01,CM,01-701-1444,7,2,METAMUCIL,UNCODED,,UNCODED,3,Tbsp,QD,ORAL,3,BASELINE,1,2013-01-05,2009,,,
CDISCPILOT01,CM,01-701-1444,10,2,METAMUCIL,UNCODED,,UNCODED,3,Tbsp,QD,ORAL,4,WEEK 2,14,2013-01-18,2009,,,
CDISCPILOT01,CM,01-701-1444,13,2,METAMUCIL,UNCODED,,UNCODED,3,Tbsp,QD,ORAL,5,WEEK 4,28,2013-01-31,2009,,,
CDISCPILOT01,CM,01-701-1444,15,2,METAMUCIL,UNCODED,,UNCODED,3,Tbsp,QD,ORAL,6,AMBUL ECG REMOVAL,30,2013-02-02,2009,,,
CDISCPILOT01,CM,01-701-1444,17,2,METAMUCIL,UNCODED,,UNCODED,3,Tbsp,QD,ORAL,7,WEEK 6,42,2013-02-13,2009,,,
CDISCPILOT01,CM,01-701-1444,19,2,METAMUCIL,UNCODED,,UNCODED,3,Tbsp,QD,ORAL,101,AE FOLLOW-UP,,2013-06-20,2009,,,
CDISCPILOT01,CM,01-701-1444,24,2,METAMUCIL,UNCODED,,UNCODED,3,Tbsp,QD,ORAL,201,RETRIEVAL,168,2013-06-20,2009,,,
CDISCPILOT01,CM,01-701-1444,22,5,PREDNISONE,UNCODED,,UNCODED,20,mg,QD,ORAL,101,AE FOLLOW-UP,,2013-06-20,2013-02-18,2013-05-10,45,126
CDISCPILOT01,CM,01-701-1444,23,6,TEMOVATE,CLOBETASOL PROPIONATE,,DERMATOLOGICALS,1,VIAL,PRN,TOPICAL,101,AE FOLLOW-UP,,2013-06-20,2013-02-18,2013-02-20,45,47
CDISCPILOT01,CM,01-702-1082,1,1,"HYDROCORTISONE, TOPICAL",UNCODED,,UNCODED,2,gtt,PRN,TOPICAL,8,WEEK 8,56,2013-09-28,2013-09-24,2013-10-31,61,98
CDISCPILOT01,CM,01-702-1082,2,1,"HYDROCORTISONE, TOPICAL",UNCODED,,UNCODED,2,gtt,PRN,TOPICAL,9,WEEK 12,84,2013-11-17,2013-09-24,2013-10-31,61,98
CDISCPILOT01,CM,01-703-1042,13,4,KAOPECTATE,UNCODED,,UNCODED,1,Tbsp,ONCE,ORAL,4,WEEK 2,14,2013-03-14,2013-03-05,2013-03-05,4,4
CDISCPILOT01,CM,01-703-1042,3,1,NORVASC,AMLODIPINE,,CARDIOVASCULAR SYSTEM,5,mg,QD,ORAL,1,SCREENING 1,-7,2013-02-23,2013-01-27,,-34,
CDISCPILOT01,CM,01-703-1042,6,1,NORVASC,AMLODIPINE,,CARDIOVASCULAR SYSTEM,5,mg,QD,ORAL,2,SCREENING 2,-1,2013-02-28,2013-01-27,,-34,
CDISCPILOT01,CM,01-703-1042,9,1,NORVASC,AMLODIPINE,,CARDIOVASCULAR SYSTEM,5,mg,QD,ORAL,3,BASELINE,1,2013-03-02,2013-01-27,,-34,
CDISCPILOT01,CM,01-703-1042,12,1,NORVASC,AMLODIPINE,,CARDIOVASCULAR SYSTEM,5,mg,QD,ORAL,4,WEEK 2,14,2013-03-14,2013-01-27,,-34,
CDISCPILOT01,CM,01-703-1042,16,1,NORVASC,AMLODIPINE,,CARDIOVASCULAR SYSTEM,5,mg,QD,ORAL,5,WEEK 4,28,2013-03-28,2013-01-27,,-34,
CDISCPILOT01,CM,01-703-1042,19,1,NORVASC,AMLODIPINE,,CARDIOVASCULAR SYSTEM,5,mg,QD,ORAL,6,AMBUL ECG REMOVAL,30,2013-03-30,2013-01-27,,-34,
CDISCPILOT01,CM,01-703-1042,22,1,NORVASC,AMLODIPINE,,CARDIOVASCULAR SYSTEM,5,mg,QD,ORAL,7,WEEK 6,42,2013-04-13,2013-01-27,,-34,
CDISCPILOT01,CM,01-703-1042,25,1,NORVASC,AMLODIPINE,,CARDIOVASCULAR SYSTEM,5,mg,QD,ORAL,8,WEEK 8,56,2013-04-27,2013-01-27,,-34,
CDISCPILOT01,CM,01-703-1042,28,1,NORVASC,AMLODIPINE,,CARDIOVASCULAR SYSTEM,5,mg,QD,ORAL,9,WEEK 12,84,2013-05-25,2013-01-27,,-34,
CDISCPILOT01,CM,01-703-1042,31,1,NORVASC,AMLODIPINE,,CARDIOVASCULAR SYSTEM,5,mg,QD,ORAL,10,WEEK 16,112,2013-06-22,2013-01-27,,-34,
CDISCPILOT01,CM,01-703-1042,34,1,NORVASC,AMLODIPINE,,CARDIOVASCULAR SYSTEM,5,mg,QD,ORAL,11,WEEK 20,140,2013-07-20,2013-01-27,,-34,
CDISCPILOT01,CM,01-703-1042,37,1,NORVASC,AMLODIPINE,,CARDIOVASCULAR SYSTEM,5,mg,QD,ORAL,12,WEEK 24,168,2013-08-09,2013-01-27,,-34,
CDISCPILOT01,CM,01-703-1042,40,1,NORVASC,AMLODIPINE,,CARDIOVASCULAR SYSTEM,5,mg,QD,ORAL,13,WEEK 26,182,2013-08-31,2013-01-27,,-34,
CDISCPILOT01,CM,01-703-1042,1,2,VITAMIN C,UNCODED,PROPHYLAXIS OR NON-THERAPEUTIC USE,UNCODED,500,mg,QD,ORAL,1,SCREENING 1,-7,2013-02-23,2009,,,
CDISCPILOT01,CM,01-703-1042,4,2,VITAMIN C,UNCODED,PROPHYLAXIS OR NON-THERAPEUTIC USE,UNCODED,500,mg,QD,ORAL,2,SCREENING 2,-1,2013-02-28,2009,,,
CDISCPILOT01,CM,01-703-1042,7,2,VITAMIN C,UNCODED,PROPHYLAXIS OR NON-THERAPEUTIC USE,UNCODED,500,mg,QD,ORAL,3,BASELINE,1,2013-03-02,2009,,,
CDISCPILOT01,CM,01-703-1042,10,2,VITAMIN C,UNCODED,PROPHYLAXIS OR NON-THERAPEUTIC USE,UNCODED,500,mg,QD,ORAL,4,WEEK 2,14,2013-03-14,2009,,,
CDISCPILOT01,CM,01-703-1042,14,2,VITAMIN C,UNCODED,PROPHYLAXIS OR NON-THERAPEUTIC USE,UNCODED,500,mg,QD,ORAL,5,WEEK 4,28,2013-03-28,2009,,,
CDISCPILOT01,CM,01-703-1042,17,2,VITAMIN C,UNCODED,PROPHYLAXIS OR NON-THERAPEUTIC USE,UNCODED,500,mg,QD,ORAL,6,AMBUL ECG REMOVAL,30,2013-03-30,2009,,,
CDISCPILOT01,CM,01-703-1042,20,2,VITAMIN C,UNCODED,PROPHYLAXIS OR NON-THERAPEUTIC USE,UNCODED,500,mg,QD,ORAL,7,WEEK 6,42,2013-04-13,2009,,,
CDISCPILOT01,CM,01-703-1042,23,2,VITAMIN C,UNCODED,PROPHYLAXIS OR NON-THERAPEUTIC USE,UNCODED,500,mg,QD,ORAL,8,WEEK 8,56,2013-04-27,2009,,,
CDISCPILOT01,CM,01-703-1042,26,2,VITAMIN C,UNCODED,PROPHYLAXIS OR NON-THERAPEUTIC USE,UNCODED,500,mg,QD,ORAL,9,WEEK 12,84,2013-05-25,2009,,,
CDISCPILOT01,CM,01-703-1042,29,2,VITAMIN C,UNCODED,PROPHYLAXIS OR NON-THERAPEUTIC USE,UNCODED,500,mg,QD,ORAL,10,WEEK 16,112,2013-06-22,2009,,,
CDISCPILOT01,CM,01-703-1042,32,2,VITAMIN C,UNCODED,PROPHYLAXIS OR NON-THERAPEUTIC USE,UNCODED,500,mg,QD,ORAL,11,WEEK 20,140,2013-07-20,2009,,,
CDISCPILOT01,CM,01-703-1042,35,2,VITAMIN C,UNCODED,PROPHYLAXIS OR NON-THERAPEUTIC USE,UNCODED,500,mg,QD,ORAL,12,WEEK 24,168,2013-08-09,2009,,,
CDISCPILOT01,CM,01-703-1042,38,2,VITAMIN C,UNCODED,PROPHYLAXIS OR NON-THERAPEUTIC USE,UNCODED,500,mg,QD,ORAL,13,WEEK 26,182,2013-08-31,2009,,,
CDISCPILOT01,CM,01-703-1042,2,3,VITAMIN E,UNCODED,PROPHYLAXIS OR NON-THERAPEUTIC USE,UNCODED,200,mg,QD,ORAL,1,SCREENING 1,-7,2013-02-23,2009,,,
CDISCPILOT01,CM,01-703-1042,5,3,VITAMIN E,UNCODED,PROPHYLAXIS OR NON-THERAPEUTIC USE,UNCODED,200,mg,QD,ORAL,2,SCREENING 2,-1,2013-02-28,2009,,,
CDISCPILOT01,CM,01-703-1042,8,3,VITAMIN E,UNCODED,PROPHYLAXIS OR NON-THERAPEUTIC USE,UNCODED,200,mg,QD,ORAL,3,BASELINE,1,2013-03-02,2009,,,
CDISCPILOT01,CM,01-703-1042,11,3,VITAMIN E,UNCODED,PROPHYLAXIS OR NON-THERAPEUTIC USE,UNCODED,200,mg,QD,ORAL,4,WEEK 2,14,2013-03-14,2009,,,
CDISCPILOT01,CM,01-703-1042,15,3,VITAMIN E,UNCODED,PROPHYLAXIS OR NON-THERAPEUTIC USE,UNCODED,200,mg,QD,ORAL,5,WEEK 4,28,2013-03-28,2009,,,
CDISCPILOT01,CM,01-703-1042,18,3,VITAMIN E,UNCODED,PROPHYLAXIS OR NON-THERAPEUTIC USE,UNCODED,200,mg,QD,ORAL,6,AMBUL ECG REMOVAL,30,2013-03-30,2009,,,
CDISCPILOT01,CM,01-703-1042,21,3,VITAMIN E,UNCODED,PROPHYLAXIS OR NON-THERAPEUTIC USE,UNCODED,200,mg,QD,ORAL,7,WEEK 6,42,2013-04-13,2009,,,
CDISCPILOT01,CM,01-703-1042,24,3,VITAMIN E,UNCODED,PROPHYLAXIS OR NON-THERAPEUTIC USE,UNCODED,200,mg,QD,ORAL,8,WEEK 8,56,2013-04-27,2009,,,
CDISCPILOT01,CM,01-703-1042,27,3,VITAMIN E,UNCODED,PROPHYLAXIS OR NON-THERAPEUTIC USE,UNCODED,200,mg,QD,ORAL,9,WEEK 12,84,2013-05-25,2009,,,
CDISCPILOT01,CM,01-703-1042,30,3,VITAMIN E,UNCODED,PROPHYLAXIS OR NON-THERAPEUTIC USE,UNCODED,200,mg,QD,ORAL,10,WEEK 16,112,2013-06-22,2009,,,
CDISCPILOT01,CM,01-703-1042,33,3,VITAMIN E,UNCODED,PROPHYLAXIS OR NON-THERAPEUTIC USE,UNCODED,200,mg,QD,ORAL,11,WEEK 20,140,2013-07-20,2009,,,
CDISCPILOT01,CM,01-703-1042,36,3,VITAMIN E,UNCODED,PROPHYLAXIS OR NON-THERAPEUTIC USE,UNCODED,200,mg,QD,ORAL,12,WEEK 24,168,2013-08-09,2009,,,
CDISCPILOT01,CM,01-703-1042,39,3,VITAMIN E,UNCODED,PROPHYLAXIS OR NON-THERAPEUTIC USE,UNCODED,200,mg,QD,ORAL,13,WEEK 26,182,2013-08-31,2009,,,
CDISCPILOT01,CM,01-703-1076,1,1,ASPIRIN,ACETYLSALICYLIC ACID,PROPHYLAXIS OR NON-THERAPEUTIC USE,NERVOUS SYSTEM,325,mg,QD,ORAL,1,SCREENING 1,-7,2013-10-17,2010,,,
CDISCPILOT01,CM,01-703-1076,4,1,ASPIRIN,ACETYLSALICYLIC ACID,PROPHYLAXIS OR NON-THERAPEUTIC USE,NERVOUS SYSTEM,325,mg,QD,ORAL,2,SCREENING 2,-1,2013-10-23,2010,,,
CDISCPILOT01,CM,01-703-1076,7,1,ASPIRIN,ACETYLSALICYLIC ACID,PROPHYLAXIS OR NON-THERAPEUTIC USE,NERVOUS SYSTEM,325,mg,QD,ORAL,3,BASELINE,1,2013-10-25,2010,,,
CDISCPILOT01,CM,01-703-1076,10,1,ASPIRIN,ACETYLSALICYLIC ACID,PROPHYLAXIS OR NON-THERAPEUTIC USE,NERVOUS SYSTEM,325,mg,QD,ORAL,4,WEEK 2,14,2013-11-06,2010,,,
CDISCPILOT01,CM,01-703-1076,13,1,ASPIRIN,ACETYLSALICYLIC ACID,PROPHYLAXIS OR NON-THERAPEUTIC USE,NERVOUS SYSTEM,325,mg,QD,ORAL,5,WEEK 4,28,2013-11-20,2010,,,
CDISCPILOT01,CM,01-703-1076,16,1,ASPIRIN,ACETYLSALICYLIC ACID,PROPHYLAXIS OR NON-THERAPEUTIC USE,NERVOUS SYSTEM,325,mg,QD,ORAL,6,AMBUL ECG REMOVAL,30,2013-11-22,2010,,,
CDISCPILOT01,CM,01-703-1076,19,1,ASPIRIN,ACETYLSALICYLIC ACID,PROPHYLAXIS OR NON-THERAPEUTIC USE,NERVOUS SYSTEM,325,mg,QD,ORAL,7,WEEK 6,42,2013-12-04,2010,,,
CDISCPILOT01,CM,01-703-1076,23,1,ASPIRIN,ACETYLSALICYLIC ACID,PROPHYLAXIS OR NON-THERAPEUTIC USE,NERVOUS SYSTEM,325,mg,QD,ORAL,8,WEEK 8,56,2013-12-17,2010,,,
CDISCPILOT01,CM,01-703-1076,28,1,ASPIRIN,ACETYLSALICYLIC ACID,PROPHYLAXIS OR NON-THERAPEUTIC USE,NERVOUS SYSTEM,325,mg,QD,ORAL,9,WEEK 12,84,2013-12-24,2010,,,
CDISCPILOT01,CM,01-703-1076,33,1,ASPIRIN,ACETYLSALICYLIC ACID,PROPHYLAXIS OR NON-THERAPEUTIC USE,NERVOUS SYSTEM,325,mg,QD,ORAL,101,AE FOLLOW-UP,,2014-01-21,2010,,,
CDISCPILOT01,CM,01-703-1076,26,4,CORTISONE,UNCODED,,UNCODED,10,mg,PRN,TOPICAL,8,WEEK 8,56,2013-12-17,2013-12-05,,42,
CDISCPILOT01,CM,01-703-1076,30,4,CORTISONE,UNCODED,,UNCODED,10,mg,PRN,TOPICAL,9,WEEK 12,84,2013-12-24,2013-12-05,,42,
CDISCPILOT01,CM,01-703-1076,35,4,CORTISONE,UNCODED,,UNCODED,10,mg,PRN,TOPICAL,101,AE FOLLOW-UP,,2014-01-21,2013-12-05,,42,
CDISCPILOT01,CM,01-703-1076,32,7,LAC-HYDRIN,UNCODED,,UNCODED,,,BID,TOPICAL,9,WEEK 12,84,2013-12-24,2013-12-18,,55,
CDISCPILOT01,CM,01-703-1076,37,7,LAC-HYDRIN,UNCODED,,UNCODED,,,BID,TOPICAL,101,AE FOLLOW-UP,,2014-01-21,2013-12-18,,55,
CDISCPILOT01,CM,01-703-1076,27,5,LIPITOR,UNCODED,,UNCODED,10,mg,QD,ORAL,8,WEEK 8,56,2013-12-17,2013-12-12,,49,
CDISCPILOT01,CM,01-703-1076,31,5,LIPITOR,UNCODED,,UNCODED,10,mg,QD,ORAL,9,WEEK 12,84,2013-12-24,2013-12-12,,49,
CDISCPILOT01,CM,01-703-1076,36,5,LIPITOR,UNCODED,,UNCODED,10,mg,QD,ORAL,101,AE FOLLOW-UP,,2014-01-21,2013-12-12,,49,
CDISCPILOT01,CM,01-703-1076,3,3,LOPID,UNCODED,,UNCODED,600,mg,BID,ORAL,1,SCREENING 1,-7,2013-10-17,2013-08-31,2013-11-27,-55,34
CDISCPILOT01,CM,01-703-1076,6,3,LOPID,UNCODED,,UNCODED,600,mg,BID,ORAL,2,SCREENING 2,-1,2013-10-23,2013-08-31,2013-11-27,-55,34
CDISCPILOT01,CM,01-703-1076,9,3,LOPID,UNCODED,,UNCODED,600,mg,BID,ORAL,3,BASELINE,1,2013-10-25,2013-08-31,2013-11-27,-55,34
CDISCPILOT01,CM,01-703-1076,12,3,LOPID,UNCODED,,UNCODED,600,mg,BID,ORAL,4,WEEK 2,14,2013-11-06,2013-08-31,2013-11-27,-55,34
CDISCPILOT01,CM,01-703-1076,15,3,LOPID,UNCODED,,UNCODED,600,mg,BID,ORAL,5,WEEK 4,28,2013-11-20,2013-08-31,2013-11-27,-55,34
CDISCPILOT01,CM,01-703-1076,18,3,LOPID,UNCODED,,UNCODED,600,mg,BID,ORAL,6,AMBUL ECG REMOVAL,30,2013-11-22,2013-08-31,2013-11-27,-55,34
CDISCPILOT01,CM,01-703-1076,21,3,LOPID,UNCODED,,UNCODED,600,mg,BID,ORAL,7,WEEK 6,42,2013-12-04,2013-08-31,2013-11-27,-55,34
CDISCPILOT01,CM,01-703-1076,22,6,MEVACOR,UNCODED,,UNCODED,20,mg,QD,ORAL,7,WEEK 6,42,2013-12-04,2013-11-28,2013-12-12,35,49
CDISCPILOT01,CM,01-703-1076,25,6,MEVACOR,UNCODED,,UNCODED,20,mg,QD,ORAL,8,WEEK 8,56,2013-12-17,2013-11-28,2013-12-12,35,49
CDISCPILOT01,CM,01-703-1076,2,2,TIMOPTIC,UNCODED,,UNCODED,1,gtt,EVERY NIGHT,OPHTHALMIC,1,SCREENING 1,-7,2013-10-17,2012-11-13,,-346,
CDISCPILOT01,CM,01-703-1076,5,2,TIMOPTIC,UNCODED,,UNCODED,1,gtt,EVERY NIGHT,OPHTHALMIC,2,SCREENING 2,-1,2013-10-23,2012-11-13,,-346,
CDISCPILOT01,CM,01-703-1076,8,2,TIMOPTIC,UNCODED,,UNCODED,1,gtt,EVERY NIGHT,OPHTHALMIC,3,BASELINE,1,2013-10-25,2012-11-13,,-346,
CDISCPILOT01,CM,01-703-1076,11,2,TIMOPTIC,UNCODED,,UNCODED,1,gtt,EVERY NIGHT,OPHTHALMIC,4,WEEK 2,14,2013-11-06,2012-11-13,,-346,
CDISCPILOT01,CM,01-703-1076,14,2,TIMOPTIC,UNCODED,,UNCODED,1,gtt,EVERY NIGHT,OPHTHALMIC,5,WEEK 4,28,2013-11-20,2012-11-13,,-346,
CDISCPILOT01,CM,01-703-1076,17,2,TIMOPTIC,UNCODED,,UNCODED,1,gtt,EVERY NIGHT,OPHTHALMIC,6,AMBUL ECG REMOVAL,30,2013-11-22,2012-11-13,,-346,
CDISCPILOT01,CM,01-703-1076,20,2,TIMOPTIC,UNCODED,,UNCODED,1,gtt,EVERY NIGHT,OPHTHALMIC,7,WEEK 6,42,2013-12-04,2012-11-13,,-346,
CDISCPILOT01,CM,01-703-1076,24,2,TIMOPTIC,UNCODED,,UNCODED,1,gtt,EVERY NIGHT,OPHTHALMIC,8,WEEK 8,56,2013-12-17,2012-11-13,,-346,
CDISCPILOT01,CM,01-703-1076,29,2,TIMOPTIC,UNCODED,,UNCODED,1,gtt,EVERY NIGHT,OPHTHALMIC,9,WEEK 12,84,2013-12-24,2012-11-13,,-346,
CDISCPILOT01,CM,01-703-1076,34,2,TIMOPTIC,UNCODED,,UNCODED,1,gtt,EVERY NIGHT,OPHTHALMIC,101,AE FOLLOW-UP,,2014-01-21,2012-11-13,,-346,
CDISCPILOT01,CM,01-703-1086,3,1,CALAMINE,UNCODED,,UNCODED,1,VIAL,PRN,TOPICAL,5,WEEK 4,28,2012-09-30,2012-09-30,2012-12-13,29,103
CDISCPILOT01,CM,01-703-1086,6,1,CALAMINE,UNCODED,,UNCODED,1,VIAL,PRN,TOPICAL,6,AMBUL ECG REMOVAL,30,2012-10-02,2012-09-30,2012-12-13,29,103
CDISCPILOT01,CM,01-703-1086,9,1,CALAMINE,UNCODED,,UNCODED,1,VIAL,PRN,TOPICAL,7,WEEK 6,42,2012-10-13,2012-09-30,2012-12-13,29,103
CDISCPILOT01,CM,01-703-1086,12,1,CALAMINE,UNCODED,,UNCODED,1,VIAL,PRN,TOPICAL,8,WEEK 8,56,2012-10-27,2012-09-30,2012-12-13,29,103
CDISCPILOT01,CM,01-703-1086,15,1,CALAMINE,UNCODED,,UNCODED,1,VIAL,PRN,TOPICAL,9,WEEK 12,84,2012-11-27,2012-09-30,2012-12-13,29,103
CDISCPILOT01,CM,01-703-1086,18,1,CALAMINE,UNCODED,,UNCODED,1,VIAL,PRN,TOPICAL,10,WEEK 16,112,2012-12-24,2012-09-30,2012-12-13,29,103
CDISCPILOT01,CM,01-703-1086,1,2,CORTISONE,UNCODED,,UNCODED,1,%,PRN,TOPICAL,4,WEEK 2,14,2012-09-16,2012-09-15,2012-12-13,14,103
CDISCPILOT01,CM,01-703-1086,2,2,CORTISONE,UNCODED,,UNCODED,1,%,PRN,TOPICAL,5,WEEK 4,28,2012-09-30,2012-09-15,2012-12-13,14,103
CDISCPILOT01,CM,01-703-1086,5,2,CORTISONE,UNCODED,,UNCODED,1,%,PRN,TOPICAL,6,AMBUL ECG REMOVAL,30,2012-10-02,2012-09-15,2012-12-13,14,103
CDISCPILOT01,CM,01-703-1086,8,2,CORTISONE,UNCODED,,UNCODED,1,%,PRN,TOPICAL,7,WEEK 6,42,2012-10-13,2012-09-15,2012-12-13,14,103
CDISCPILOT01,CM,01-703-1086,11,2,CORTISONE,UNCODED,,UNCODED,1,%,PRN,TOPICAL,8,WEEK 8,56,2012-10-27,2012-09-15,2012-12-13,14,103
CDISCPILOT01,CM,01-703-1086,14,2,CORTISONE,UNCODED,,UNCODED,1,%,PRN,TOPICAL,9,WEEK 12,84,2012-11-27,2012-09-15,2012-12-13,14,103
CDISCPILOT01,CM,01-703-1086,17,2,CORTISONE,UNCODED,,UNCODED,1,%,PRN,TOPICAL,10,WEEK 16,112,2012-12-24,2012-09-15,2012-12-13,14,103
CDISCPILOT01,CM,01-703-1086,4,3,CORTISONE,UNCODED,,UNCODED,2.5,%,PRN,TOPICAL,5,WEEK 4,28,2012-09-30,2012-09-30,2012-12-13,29,103
CDISCPILOT01,CM,01-703-1086,7,3,CORTISONE,UNCODED,,UNCODED,2.5,%,PRN,TOPICAL,6,AMBUL ECG REMOVAL,30,2012-10-02,2012-09-30,2012-12-13,29,103
CDISCPILOT01,CM,01-703-1086,10,3,CORTISONE,UNCODED,,UNCODED,2.5,%,PRN,TOPICAL,7,WEEK 6,42,2012-10-13,2012-09-30,2012-12-13,29,103
CDISCPILOT01,CM,01-703-1086,13,3,CORTISONE,UNCODED,,UNCODED,2.5,%,PRN,TOPICAL,8,WEEK 8,56,2012-10-27,2012-09-30,2012-12-13,29,103
CDISCPILOT01,CM,01-703-1086,16,3,CORTISONE,UNCODED,,UNCODED,2.5,%,PRN,TOPICAL,9,WEEK 12,84,2012-11-27,2012-09-30,2012-12-13,29,103
CDISCPILOT01,CM,01-703-1086,19,3,CORTISONE,UNCODED,,UNCODED,2.5,%,PRN,TOPICAL,10,WEEK 16,112,2012-12-24,2012-09-30,2012-12-13,29,103
CDISCPILOT01,CM,01-703-1100,28,5,CEPHALOSPORIN C,UNCODED,,UNCODED,1,gtt,BID,OPHTHALMIC,8,WEEK 8,56,2013-05-08,2013-04-25,2013-05-11,44,60
CDISCPILOT01,CM,01-703-1100,32,5,CEPHALOSPORIN C,UNCODED,,UNCODED,1,gtt,BID,OPHTHALMIC,9,WEEK 12,84,2013-06-05,2013-04-25,2013-05-11,44,60
CDISCPILOT01,CM,01-703-1100,41,7,CORTISONE,UNCODED,PROPHYLAXIS OR NON-THERAPEUTIC USE,UNCODED,10,mg,PRN,TOPICAL,11,WEEK 20,140,2013-07-31,2013-07-08,,118,
CDISCPILOT01,CM,01-703-1100,45,7,CORTISONE,UNCODED,PROPHYLAXIS OR NON-THERAPEUTIC USE,UNCODED,10,mg,PRN,TOPICAL,12,WEEK 24,168,2013-08-28,2013-07-08,,118,
CDISCPILOT01,CM,01-703-1100,49,7,CORTISONE,UNCODED,PROPHYLAXIS OR NON-THERAPEUTIC USE,UNCODED,10,mg,PRN,TOPICAL,13,WEEK 26,182,2013-09-14,2013-07-08,,118,
CDISCPILOT01,CM,01-703-1100,33,6,ERYTHROMYCIN,UNCODED,,UNCODED,500,mg,BID,ORAL,9,WEEK 12,84,2013-06-05,2013-05-29,2013-06-06,78,86
CDISCPILOT01,CM,01-703-1100,37,6,ERYTHROMYCIN,UNCODED,,UNCODED,500,mg,BID,ORAL,10,WEEK 16,112,2013-07-03,2013-05-29,2013-06-06,78,86
CDISCPILOT01,CM,01-703-1100,1,1,IBUPROFEN,UNCODED,,UNCODED,200,mg,PRN,ORAL,1,SCREENING 1,-7,2013-02-28,2006,,,
CDISCPILOT01,CM,01-703-1100,4,1,IBUPROFEN,UNCODED,,UNCODED,200,mg,PRN,ORAL,2,SCREENING 2,-1,2013-03-11,2006,,,
CDISCPILOT01,CM,01-703-1100,7,1,IBUPROFEN,UNCODED,,UNCODED,200,mg,PRN,ORAL,3,BASELINE,1,2013-03-13,2006,,,
CDISCPILOT01,CM,01-703-1100,10,1,IBUPROFEN,UNCODED,,UNCODED,200,mg,PRN,ORAL,4,WEEK 2,14,2013-03-29,2006,,,
CDISCPILOT01,CM,01-703-1100,13,1,IBUPROFEN,UNCODED,,UNCODED,200,mg,PRN,ORAL,5,WEEK 4,28,2013-04-12,2006,,,
CDISCPILOT01,CM,01-703-1100,17,1,IBUPROFEN,UNCODED,,UNCODED,200,mg,PRN,ORAL,6,AMBUL ECG REMOVAL,30,2013-04-14,2006,,,
CDISCPILOT01,CM,01-703-1100,21,1,IBUPROFEN,UNCODED,,UNCODED,200,mg,PRN,ORAL,7,WEEK 6,42,2013-04-24,2006,,,
CDISCPILOT01,CM,01-703-1100,25,1,IBUPROFEN,UNCODED,,UNCODED,200,mg,PRN,ORAL,8,WEEK 8,56,2013-05-08,2006,,,
CDISCPILOT01,CM,01-703-1100,29,1,IBUPROFEN,UNCODED,,UNCODED,200,mg,PRN,ORAL,9,WEEK 12,84,2013-06-05,2006,,,
CDISCPILOT01,CM,01-703-1100,34,1,IBUPROFEN,UNCODED,,UNCODED,200,mg,PRN,ORAL,10,WEEK 16,112,2013-07-03,2006,,,
CDISCPILOT01,CM,01-703-1100,38,1,IBUPROFEN,UNCODED,,UNCODED,200,mg,PRN,ORAL,11,WEEK 20,140,2013-07-31,2006,,,
CDISCPILOT01,CM,01-703-1100,42,1,IBUPROFEN,UNCODED,,UNCODED,200,mg,PRN,ORAL,12,WEEK 24,168,2013-08-28,2006,,,
CDISCPILOT01,CM,01-703-1100,46,1,IBUPROFEN,UNCODED,,UNCODED,200,mg,PRN,ORAL,13,WEEK 26,182,2013-09-14,2006,,,
CDISCPILOT01,CM,01-703-1100,2,2,LEVOXYL,UNCODED,,UNCODED,0.05,mg,QD,ORAL,1,SCREENING 1,-7,2013-02-28,2011,,,
CDISCPILOT01,CM,01-703-1100,5,2,LEVOXYL,UNCODED,,UNCODED,0.05,mg,QD,ORAL,2,SCREENING 2,-1,2013-03-11,2011,,,
CDISCPILOT01,CM,01-703-1100,8,2,LEVOXYL,UNCODED,,UNCODED,0.05,mg,QD,ORAL,3,BASELINE,1,2013-03-13,2011,,,
CDISCPILOT01,CM,01-703-1100,11,2,LEVOXYL,UNCODED,,UNCODED,0.05,mg,QD,ORAL,4,WEEK 2,14,2013-03-29,2011,,,
CDISCPILOT01,CM,01-703-1100,14,2,LEVOXYL,UNCODED,,UNCODED,0.05,mg,QD,ORAL,5,WEEK 4,28,2013-04-12,2011,,,
CDISCPILOT01,CM,01-703-1100,18,2,LEVOXYL,UNCODED,,UNCODED,0.05,mg,QD,ORAL,6,AMBUL ECG REMOVAL,30,2013-04-14,2011,,,
CDISCPILOT01,CM,01-703-1100,22,2,LEVOXYL,UNCODED,,UNCODED,0.05,mg,QD,ORAL,7,WEEK 6,42,2013-04-24,2011,,,
CDISCPILOT01,CM,01-703-1100,26,2,LEVOXYL,UNCODED,,UNCODED,0.05,mg,QD,ORAL,8,WEEK 8,56,2013-05-08,2011,,,
CDISCPILOT01,CM,01-703-1100,30,2,LEVOXYL,UNCODED,,UNCODED,0.05,mg,QD,ORAL,9,WEEK 12,84,2013-06-05,2011,,,
CDISCPILOT01,CM,01-703-1100,35,2,LEVOXYL,UNCODED,,UNCODED,0.05,mg,QD,ORAL,10,WEEK 16,112,2013-07-03,2011,,,
CDISCPILOT01,CM,01-703-1100,39,2,LEVOXYL,UNCODED,,UNCODED,0.05,mg,QD,ORAL,11,WEEK 20,140,2013-07-31,2011,,,
CDISCPILOT01,CM,01-703-1100,43,2,LEVOXYL,UNCODED,,UNCODED,0.05,mg,QD,ORAL,12,WEEK 24,168,2013-08-28,2011,,,
CDISCPILOT01,CM,01-703-1100,47,2,LEVOXYL,UNCODED,,UNCODED,0.05,mg,QD,ORAL,13,WEEK 26,182,2013-09-14,2011,,,
CDISCPILOT01,CM,01-703-1100,16,4,NEOSPORIN /USA/,UNCODED,,UNCODED,1,g,PRN,TOPICAL,5,WEEK 4,28,2013-04-12,2013-04-05,2013-04-15,24,34
CDISCPILOT01,CM,01-703-1100,20,4,NEOSPORIN /USA/,UNCODED,,UNCODED,1,g,PRN,TOPICAL,6,AMBUL ECG REMOVAL,30,2013-04-14,2013-04-05,2013-04-15,24,34
CDISCPILOT01,CM,01-703-1100,24,4,NEOSPORIN /USA/,UNCODED,,UNCODED,1,g,PRN,TOPICAL,7,WEEK 6,42,2013-04-24,2013-04-05,2013-04-15,24,34
CDISCPILOT01,CM,01-703-1100,3,3,VITAMIN B12,UNCODED,PROPHYLAXIS OR NON-THERAPEUTIC USE,UNCODED,15,ug,PRN,ORAL,1,SCREENING 1,-7,2013-02-28,2012-01-19,,-419,
CDISCPILOT01,CM,01-703-1100,6,3,VITAMIN B12,UNCODED,PROPHYLAXIS OR NON-THERAPEUTIC USE,UNCODED,15,ug,PRN,ORAL,2,SCREENING 2,-1,2013-03-11,2012-01-19,,-419,
CDISCPILOT01,CM,01-703-1100,9,3,VITAMIN B12,UNCODED,PROPHYLAXIS OR NON-THERAPEUTIC USE,UNCODED,15,ug,PRN,ORAL,3,BASELINE,1,2013-03-13,2012-01-19,,-419,
CDISCPILOT01,CM,01-703-1100,12,3,VITAMIN B12,UNCODED,PROPHYLAXIS OR NON-THERAPEUTIC USE,UNCODED,15,ug,PRN,ORAL,4,WEEK 2,14,2013-03-29,2012-01-19,,-419,
CDISCPILOT01,CM,01-703-1100,15,3,VITAMIN B12,UNCODED,PROPHYLAXIS OR NON-THERAPEUTIC USE,UNCODED,15,ug,PRN,ORAL,5,WEEK 4,28,2013-04-12,2012-01-19,,-419,
CDISCPILOT01,CM,01-703-1100,19,3,VITAMIN B12,UNCODED,PROPHYLAXIS OR NON-THERAPEUTIC USE,UNCODED,15,ug,PRN,ORAL,6,AMBUL ECG REMOVAL,30,2013-04-14,2012-01-19,,-419,
CDISCPILOT01,CM,01-703-1100,23,3,VITAMIN B12,UNCODED,PROPHYLAXIS OR NON-THERAPEUTIC USE,UNCODED,15,ug,PRN,ORAL,7,WEEK 6,42,2013-04-24,2012-01-19,,-419,
CDISCPILOT01,CM,01-703-1100,27,3,VITAMIN B12,UNCODED,PROPHYLAXIS OR NON-THERAPEUTIC USE,UNCODED,15,ug,PRN,ORAL,8,WEEK 8,56,2013-05-08,2012-01-19,,-419,
CDISCPILOT01,CM,01-703-1100,31,3,VITAMIN B12,UNCODED,PROPHYLAXIS OR NON-THERAPEUTIC USE,UNCODED,15,ug,PRN,ORAL,9,WEEK 12,84,2013-06-05,2012-01-19,,-419,
CDISCPILOT01,CM,01-703-1100,36,3,VITAMIN B12,UNCODED,PROPHYLAXIS OR NON-THERAPEUTIC USE,UNCODED,15,ug,PRN,ORAL,10,WEEK 16,112,2013-07-03,2012-01-19,,-419,
CDISCPILOT01,CM,01-703-1100,40,3,VITAMIN B12,UNCODED,PROPHYLAXIS OR NON-THERAPEUTIC USE,UNCODED,15,ug,PRN,ORAL,11,WEEK 20,140,2013-07-31,2012-01-19,,-419,
CDISCPILOT01,CM,01-703-1100,44,3,VITAMIN B12,UNCODED,PROPHYLAXIS OR NON-THERAPEUTIC USE,UNCODED,15,ug,PRN,ORAL,12,WEEK 24,168,2013-08-28,2012-01-19,,-419,
CDISCPILOT01,CM,01-703-1100,48,3,VITAMIN B12,UNCODED,PROPHYLAXIS OR NON-THERAPEUTIC USE,UNCODED,15,ug,PRN,ORAL,13,WEEK 26,182,2013-09-14,2012-01-19,,-419,
CDISCPILOT01,CM,01-703-1119,31,5,ALLEGRA,UNCODED,,UNCODED,60,mg,BID,ORAL,9,WEEK 12,84,2013-05-17,2013-05-17,2013-06-16,87,117
CDISCPILOT01,CM,01-703-1119,36,5,ALLEGRA,UNCODED,,UNCODED,60,mg,BID,ORAL,10,WEEK 16,112,2013-06-13,2013-05-17,2013-06-16,87,117
CDISCPILOT01,CM,01-703-1119,41,5,ALLEGRA,UNCODED,,UNCODED,60,mg,BID,ORAL,101,AE FOLLOW-UP,,2013-07-20,2013-05-17,2013-06-16,87,117
CDISCPILOT01,CM,01-703-1119,22,4,"HYDROCORTISONE, TOPICAL",UNCODED,,UNCODED,0.5,%,PRN,TOPICAL,7,WEEK 6,42,2013-04-04,2013-04-04,,44,
CDISCPILOT01,CM,01-703-1119,26,4,"HYDROCORTISONE, TOPICAL",UNCODED,,UNCODED,0.5,%,PRN,TOPICAL,8,WEEK 8,56,2013-04-19,2013-04-04,,44,
CDISCPILOT01,CM,01-703-1119,30,4,"HYDROCORTISONE, TOPICAL",UNCODED,,UNCODED,0.5,%,PRN,TOPICAL,9,WEEK 12,84,2013-05-17,2013-04-04,,44,
CDISCPILOT01,CM,01-703-1119,35,4,"HYDROCORTISONE, TOPICAL",UNCODED,,UNCODED,0.5,%,PRN,TOPICAL,10,WEEK 16,112,2013-06-13,2013-04-04,,44,
CDISCPILOT01,CM,01-703-1119,40,4,"HYDROCORTISONE, TOPICAL",UNCODED,,UNCODED,0.5,%,PRN,TOPICAL,101,AE FOLLOW-UP,,2013-07-20,2013-04-04,,44,
CDISCPILOT01,CM,01-703-1119,45,4,"HYDROCORTISONE, TOPICAL",UNCODED,,UNCODED,0.5,%,PRN,TOPICAL,201,RETRIEVAL,168,2013-08-24,2013-04-04,,44,
CDISCPILOT01,CM,01-703-1119,2,1,NORVASC,AMLODIPINE,,CARDIOVASCULAR SYSTEM,5,mg,QD,ORAL,1,SCREENING 1,-7,2013-02-02,2013-01-20,,-31,
CDISCPILOT01,CM,01-703-1119,5,1,NORVASC,AMLODIPINE,,CARDIOVASCULAR SYSTEM,5,mg,QD,ORAL,2,SCREENING 2,-1,2013-02-14,2013-01-20,,-31,
CDISCPILOT01,CM,01-703-1119,8,1,NORVASC,AMLODIPINE,,CARDIOVASCULAR SYSTEM,5,mg,QD,ORAL,3,BASELINE,1,2013-02-20,2013-01-20,,-31,
CDISCPILOT01,CM,01-703-1119,11,1,NORVASC,AMLODIPINE,,CARDIOVASCULAR SYSTEM,5,mg,QD,ORAL,4,WEEK 2,14,2013-03-10,2013-01-20,,-31,
CDISCPILOT01,CM,01-703-1119,14,1,NORVASC,AMLODIPINE,,CARDIOVASCULAR SYSTEM,5,mg,QD,ORAL,5,WEEK 4,28,2013-03-21,2013-01-20,,-31,
CDISCPILOT01,CM,01-703-1119,17,1,NORVASC,AMLODIPINE,,CARDIOVASCULAR SYSTEM,5,mg,QD,ORAL,6,AMBUL ECG REMOVAL,30,2013-03-23,2013-01-20,,-31,
CDISCPILOT01,CM,01-703-1119,20,1,NORVASC,AMLODIPINE,,CARDIOVASCULAR SYSTEM,5,mg,QD,ORAL,7,WEEK 6,42,2013-04-04,2013-01-20,,-31,
CDISCPILOT01,CM,01-703-1119,24,1,NORVASC,AMLODIPINE,,CARDIOVASCULAR SYSTEM,5,mg,QD,ORAL,8,WEEK 8,56,2013-04-19,2013-01-20,,-31,
CDISCPILOT01,CM,01-703-1119,28,1,NORVASC,AMLODIPINE,,CARDIOVASCULAR SYSTEM,5,mg,QD,ORAL,9,WEEK 12,84,2013-05-17,2013-01-20,,-31,
CDISCPILOT01,CM,01-703-1119,33,1,NORVASC,AMLODIPINE,,CARDIOVASCULAR SYSTEM,5,mg,QD,ORAL,10,WEEK 16,112,2013-06-13,2013-01-20,,-31,
CDISCPILOT01,CM,01-703-1119,38,1,NORVASC,AMLODIPINE,,CARDIOVASCULAR SYSTEM,5,mg,QD,ORAL,101,AE FOLLOW-UP,,2013-07-20,2013-01-20,,-31,
CDISCPILOT01,CM,01-703-1119,43,1,NORVASC,AMLODIPINE,,CARDIOVASCULAR SYSTEM,5,mg,QD,ORAL,201,RETRIEVAL,168,2013-08-24,2013-01-20,,-31,
CDISCPILOT01,CM,01-703-1119,1,2,PREMARIN,ESTROGENS CONJUGATED,PROPHYLAXIS OR NON-THERAPEUTIC USE,GENITO URINARY SYSTEM AND SEX HORMONES,0.3,mg,QD,ORAL,1,SCREENING 1,-7,2013-02-02,2012-01-13,,-404,
CDISCPILOT01,CM,01-703-1119,4,2,PREMARIN,ESTROGENS CONJUGATED,PROPHYLAXIS OR NON-THERAPEUTIC USE,GENITO URINARY SYSTEM AND SEX HORMONES,0.3,mg,QD,ORAL,2,SCREENING 2,-1,2013-02-14,2012-01-13,,-404,
CDISCPILOT01,CM,01-703-1119,7,2,PREMARIN,ESTROGENS CONJUGATED,PROPHYLAXIS OR NON-THERAPEUTIC USE,GENITO URINARY SYSTEM AND SEX HORMONES,0.3,mg,QD,ORAL,3,BASELINE,1,2013-02-20,2012-01-13,,-404,
CDISCPILOT01,CM,01-703-1119,10,2,PREMARIN,ESTROGENS CONJUGATED,PROPHYLAXIS OR NON-THERAPEUTIC USE,GENITO URINARY SYSTEM AND SEX HORMONES,0.3,mg,QD,ORAL,4,WEEK 2,14,2013-03-10,2012-01-13,,-404,
CDISCPILOT01,CM,01-703-1119,13,2,PREMARIN,ESTROGENS CONJUGATED,PROPHYLAXIS OR NON-THERAPEUTIC USE,GENITO URINARY SYSTEM AND SEX HORMONES,0.3,mg,QD,ORAL,5,WEEK 4,28,2013-03-21,2012-01-13,,-404,
CDISCPILOT01,CM,01-703-1119,16,2,PREMARIN,ESTROGENS CONJUGATED,PROPHYLAXIS OR NON-THERAPEUTIC USE,GENITO URINARY SYSTEM AND SEX HORMONES,0.3,mg,QD,ORAL,6,AMBUL ECG REMOVAL,30,2013-03-23,2012-01-13,,-404,
CDISCPILOT01,CM,01-703-1119,19,2,PREMARIN,ESTROGENS CONJUGATED,PROPHYLAXIS OR NON-THERAPEUTIC USE,GENITO URINARY SYSTEM AND SEX HORMONES,0.3,mg,QD,ORAL,7,WEEK 6,42,2013-04-04,2012-01-13,,-404,
CDISCPILOT01,CM,01-703-1119,23,2,PREMARIN,ESTROGENS CONJUGATED,PROPHYLAXIS OR NON-THERAPEUTIC USE,GENITO URINARY SYSTEM AND SEX HORMONES,0.3,mg,QD,ORAL,8,WEEK 8,56,2013-04-19,2012-01-13,,-404,
CDISCPILOT01,CM,01-703-1119,27,2,PREMARIN,ESTROGENS CONJUGATED,PROPHYLAXIS OR NON-THERAPEUTIC USE,GENITO URINARY SYSTEM AND SEX HORMONES,0.3,mg,QD,ORAL,9,WEEK 12,84,2013-05-17,2012-01-13,,-404,
CDISCPILOT01,CM,01-703-1119,32,2,PREMARIN,ESTROGENS CONJUGATED,PROPHYLAXIS OR NON-THERAPEUTIC USE,GENITO URINARY SYSTEM AND SEX HORMONES,0.3,mg,QD,ORAL,10,WEEK 16,112,2013-06-13,2012-01-13,,-404,
CDISCPILOT01,CM,01-703-1119,37,2,PREMARIN,ESTROGENS CONJUGATED,PROPHYLAXIS OR NON-THERAPEUTIC USE,GENITO URINARY SYSTEM AND SEX HORMONES,0.3,mg,QD,ORAL,101,AE FOLLOW-UP,,2013-07-20,2012-01-13,,-404,
CDISCPILOT01,CM,01-703-1119,42,2,PREMARIN,ESTROGENS CONJUGATED,PROPHYLAXIS OR NON-THERAPEUTIC USE,GENITO URINARY SYSTEM AND SEX HORMONES,0.3,mg,QD,ORAL,201,RETRIEVAL,168,2013-08-24,2012-01-13,,-404,
CDISCPILOT01,CM,01-703-1119,3,3,ZOCOR,UNCODED,,UNCODED,10,mg,QD,ORAL,1,SCREENING 1,-7,2013-02-02,2013-01-20,,-31,
CDISCPILOT01,CM,01-703-1119,6,3,ZOCOR,UNCODED,,UNCODED,10,mg,QD,ORAL,2,SCREENING 2,-1,2013-02-14,2013-01-20,,-31,
CDISCPILOT01,CM,01-703-1119,9,3,ZOCOR,UNCODED,,UNCODED,10,mg,QD,ORAL,3,BASELINE,1,2013-02-20,2013-01-20,,-31,
CDISCPILOT01,CM,01-703-1119,12,3,ZOCOR,UNCODED,,UNCODED,10,mg,QD,ORAL,4,WEEK 2,14,2013-03-10,2013-01-20,,-31,
CDISCPILOT01,CM,01-703-1119,15,3,ZOCOR,UNCODED,,UNCODED,10,mg,QD,ORAL,5,WEEK 4,28,2013-03-21,2013-01-20,,-31,
CDISCPILOT01,CM,01-703-1119,18,3,ZOCOR,UNCODED,,UNCODED,10,mg,QD,ORAL,6,AMBUL ECG REMOVAL,30,2013-03-23,2013-01-20,,-31,
CDISCPILOT01,CM,01-703-1119,21,3,ZOCOR,UNCODED,,UNCODED,10,mg,QD,ORAL,7,WEEK 6,42,2013-04-04,2013-01-20,,-31,
CDISCPILOT01,CM,01-703-1119,25,3,ZOCOR,UNCODED,,UNCODED,10,mg,QD,ORAL,8,WEEK 8,56,2013-04-19,2013-01-20,,-31,
CDISCPILOT01,CM,01-703-1119,29,3,ZOCOR,UNCODED,,UNCODED,10,mg,QD,ORAL,9,WEEK 12,84,2013-05-17,2013-01-20,,-31,
CDISCPILOT01,CM,01-703-1119,34,3,ZOCOR,UNCODED,,UNCODED,10,mg,QD,ORAL,10,WEEK 16,112,2013-06-13,2013-01-20,,-31,
CDISCPILOT01,CM,01-703-1119,39,3,ZOCOR,UNCODED,,UNCODED,10,mg,QD,ORAL,101,AE FOLLOW-UP,,2013-07-20,2013-01-20,,-31,
CDISCPILOT01,CM,01-703-1119,44,3,ZOCOR,UNCODED,,UNCODED,10,mg,QD,ORAL,201,RETRIEVAL,168,2013-08-24,2013-01-20,,-31,
CDISCPILOT01,CM,01-703-1182,1,1,FUROSEMIDE,UNCODED,,UNCODED,40,mg,QD,ORAL,1,SCREENING 1,-7,2013-10-08,1997,,,
CDISCPILOT01,CM,01-703-1182,5,1,FUROSEMIDE,UNCODED,,UNCODED,40,mg,QD,ORAL,2,SCREENING 2,-1,2013-10-15,1997,,,
CDISCPILOT01,CM,01-703-1182,9,1,FUROSEMIDE,UNCODED,,UNCODED,40,mg,QD,ORAL,3,BASELINE,1,2013-10-17,1997,,,
CDISCPILOT01,CM,01-703-1182,13,1,FUROSEMIDE,UNCODED,,UNCODED,40,mg,QD,ORAL,4,WEEK 2,14,2013-10-31,1997,,,
CDISCPILOT01,CM,01-703-1182,17,1,FUROSEMIDE,UNCODED,,UNCODED,40,mg,QD,ORAL,5,WEEK 4,28,2013-11-19,1997,,,
CDISCPILOT01,CM,01-703-1182,21,1,FUROSEMIDE,UNCODED,,UNCODED,40,mg,QD,ORAL,6,AMBUL ECG REMOVAL,30,2013-11-20,1997,,,
CDISCPILOT01,CM,01-703-1182,25,1,FUROSEMIDE,UNCODED,,UNCODED,40,mg,QD,ORAL,7,WEEK 6,42,2013-11-28,1997,,,
CDISCPILOT01,CM,01-703-1182,29,1,FUROSEMIDE,UNCODED,,UNCODED,40,mg,QD,ORAL,8,WEEK 8,56,2013-12-12,1997,,,
CDISCPILOT01,CM,01-703-1182,33,1,FUROSEMIDE,UNCODED,,UNCODED,40,mg,QD,ORAL,101,AE FOLLOW-UP,,2014-01-14,1997,,,
CDISCPILOT01,CM,01-703-1182,3,2,LESCOL,FLUVASTATIN,,CARDIOVASCULAR SYSTEM,5,mg,QD,ORAL,1,SCREENING 1,-7,2013-10-08,2010,,,
CDISCPILOT01,CM,01-703-1182,7,2,LESCOL,FLUVASTATIN,,CARDIOVASCULAR SYSTEM,5,mg,QD,ORAL,2,SCREENING 2,-1,2013-10-15,2010,,,
CDISCPILOT01,CM,01-703-1182,11,2,LESCOL,FLUVASTATIN,,CARDIOVASCULAR SYSTEM,5,mg,QD,ORAL,3,BASELINE,1,2013-10-17,2010,,,
CDISCPILOT01,CM,01-703-1182,15,2,LESCOL,FLUVASTATIN,,CARDIOVASCULAR SYSTEM,5,mg,QD,ORAL,4,WEEK 2,14,2013-10-31,2010,,,
CDISCPILOT01,CM,01-703-1182,19,2,LESCOL,FLUVASTATIN,,CARDIOVASCULAR SYSTEM,5,mg,QD,ORAL,5,WEEK 4,28,2013-11-19,2010,,,
CDISCPILOT01,CM,01-703-1182,23,2,LESCOL,FLUVASTATIN,,CARDIOVASCULAR SYSTEM,5,mg,QD,ORAL,6,AMBUL ECG REMOVAL,30,2013-11-20,2010,,,
CDISCPILOT01,CM,01-703-1182,27,2,LESCOL,FLUVASTATIN,,CARDIOVASCULAR SYSTEM,5,mg,QD,ORAL,7,WEEK 6,42,2013-11-28,2010,,,
CDISCPILOT01,CM,01-703-1182,31,2,LESCOL,FLUVASTATIN,,CARDIOVASCULAR SYSTEM,5,mg,QD,ORAL,8,WEEK 8,56,2013-12-12,2010,,,
CDISCPILOT01,CM,01-703-1182,35,2,LESCOL,FLUVASTATIN,,CARDIOVASCULAR SYSTEM,5,mg,QD,ORAL,101,AE FOLLOW-UP,,2014-01-14,2010,,,
CDISCPILOT01,CM,01-703-1182,2,3,PREDNISONE,UNCODED,,UNCODED,5,mg,BID,ORAL,1,SCREENING 1,-7,2013-10-08,2003,,,
CDISCPILOT01,CM,01-703-1182,6,3,PREDNISONE,UNCODED,,UNCODED,5,mg,BID,ORAL,2,SCREENING 2,-1,2013-10-15,2003,,,
CDISCPILOT01,CM,01-703-1182,10,3,PREDNISONE,UNCODED,,UNCODED,5,mg,BID,ORAL,3,BASELINE,1,2013-10-17,2003,,,
CDISCPILOT01,CM,01-703-1182,14,3,PREDNISONE,UNCODED,,UNCODED,5,mg,BID,ORAL,4,WEEK 2,14,2013-10-31,2003,,,
CDISCPILOT01,CM,01-703-1182,18,3,PREDNISONE,UNCODED,,UNCODED,5,mg,BID,ORAL,5,WEEK 4,28,2013-11-19,2003,,,
CDISCPILOT01,CM,01-703-1182,22,3,PREDNISONE,UNCODED,,UNCODED,5,mg,BID,ORAL,6,AMBUL ECG REMOVAL,30,2013-11-20,2003,,,
CDISCPILOT01,CM,01-703-1182,26,3,PREDNISONE,UNCODED,,UNCODED,5,mg,BID,ORAL,7,WEEK 6,42,2013-11-28,2003,,,
CDISCPILOT01,CM,01-703-1182,30,3,PREDNISONE,UNCODED,,UNCODED,5,mg,BID,ORAL,8,WEEK 8,56,2013-12-12,2003,,,
CDISCPILOT01,CM,01-703-1182,34,3,PREDNISONE,UNCODED,,UNCODED,5,mg,BID,ORAL,101,AE FOLLOW-UP,,2014-01-14,2003,,,
CDISCPILOT01,CM,01-703-1182,4,4,PRINIVIL,UNCODED,,UNCODED,20,mg,QD,ORAL,1,SCREENING 1,-7,2013-10-08,2010,,,
CDISCPILOT01,CM,01-703-1182,8,4,PRINIVIL,UNCODED,,UNCODED,20,mg,QD,ORAL,2,SCREENING 2,-1,2013-10-15,2010,,,
CDISCPILOT01,CM,01-703-1182,12,4,PRINIVIL,UNCODED,,UNCODED,20,mg,QD,ORAL,3,BASELINE,1,2013-10-17,2010,,,
